"subn","word1","word2","trial","list","jol","jolrt","jolrank","jolrankp","practice","honor","choice","choicert","restudyresp","restudyacc","restudyrtfirst","restudyrt"
"1053","biology","temper",1,1,62,9.433,25,0.625,0,0,1,0.863,"",NA,NA,NA
"1053","calf","annoy",2,1,35,10.24,24,0.6,1,0,0,1.8,"skip",0,NA,18.543
"1053","anger","decay",3,1,20,8.872,15,0.375,1,0,0,0.928,"skip",0,NA,14.841
"1053","port","cinema",4,1,20,7.032,16,0.4,0,0,1,0.824,"",NA,NA,NA
"1053","process","joker",5,1,19,19.521,14,0.35,1,0,0,1.232,"skip",0,NA,11.556
"1053","remind","foam",6,1,27,11.033,23,0.575,1,0,0,1.216,"skip",0,NA,6.929
"1053","link","crisis",7,1,90,8.872,36,0.9,1,1,1,18.393,"crisis",1,NA,7.4
"1053","smother","surgery",8,1,75,4.896,27,0.675,1,0,0,1.48,"surgery",1,NA,5.48
"1053","collect","loyalty",9,1,15,12.593,7,0.175,0,1,0,0.792,"",NA,NA,NA
"1053","glue","force",10,1,21,3.728,18,0.45,0,0,1,0.776,"",NA,NA,NA
"1053","prison","loaf",11,1,97,3.776,40,1,1,1,1,1.064,"loaf",1,NA,6.538
"1053","fan","feature",12,1,84,7.552,30,0.75,0,0,1,0.831,"",NA,NA,NA
"1053","replace","roach",13,1,17,8.24,10,0.25,0,1,0,1.016,"",NA,NA,NA
"1053","caring","skirt",14,1,18,7.688,11,0.275,0,1,0,0.96,"",NA,NA,NA
"1053","date","laugh",15,1,69,12.465,26,0.65,0,0,1,0.855,"",NA,NA,NA
"1053","nerve","bumper",16,1,26,10.001,21,0.525,0,0,1,0.928,"",NA,NA,NA
"1053","plant","worm",17,1,3,9.48,1,0.025,0,1,0,0.999,"",NA,NA,NA
"1053","mill","feast",18,1,15,12.745,6,0.15,0,1,0,1.68,"",NA,NA,NA
"1053","bacon","feud",19,1,89,4.808,35,0.875,1,1,1,1.448,"feud",1,NA,7.835
"1053","pea","bathtub",20,1,91,8.264,37,0.925,1,1,1,1.104,"bathroom",0,NA,10.336
"1053","bleach","ruin",21,1,86,7.08,32,0.8,1,1,1,1.135,"ruin",1,NA,5.185
"1053","visit","glove",22,1,18,7.736,13,0.325,1,0,0,1.103,"skip",0,NA,7.393
"1053","grip","beach",23,1,23,5.991,20,0.5,1,0,0,0.999,"skip",0,NA,17.417
"1053","risk","zero",24,1,14,6.28,5,0.125,0,1,0,0.911,"",NA,NA,NA
"1053","shrink","mafia",25,1,12,7.793,3,0.075,0,1,0,0.863,"",NA,NA,NA
"1053","need","faucet",26,1,10,7.824,2,0.05,0,1,0,1.079,"",NA,NA,NA
"1053","capital","figure",27,1,86,7.176,31,0.775,1,1,1,1.207,"figure",1,NA,5.072
"1053","chicken","beet",28,1,89,4.536,34,0.85,1,1,1,0.984,"beet",1,NA,4.456
"1053","banner","glide",29,1,16,7.168,8,0.2,0,1,0,0.888,"",NA,NA,NA
"1053","bullet","walkway",30,1,87,4.313,33,0.825,1,1,1,0.959,"hallway",0,NA,6.399
"1053","rock","milk",31,1,21,10.505,17,0.425,1,0,0,0.831,"beach",0,NA,6.152
"1053","climax","saucer",32,1,16,8.633,9,0.225,0,0,1,0.889,"",NA,NA,NA
"1053","bias","sirloin",33,1,94,7.215,39,0.975,1,1,1,3.175,"skip",0,NA,7.159
"1053","knock","otter",34,1,14,6.184,4,0.1,0,1,0,1.216,"",NA,NA,NA
"1053","want","ascent",35,1,84,7.584,29,0.725,0,0,1,1.304,"",NA,NA,NA
"1053","copy","bedroom",36,1,18,7.745,12,0.3,1,0,0,0.992,"skip",0,NA,7.949
"1053","forest","knob",37,1,26,4.479,22,0.55,0,0,1,0.896,"",NA,NA,NA
"1053","pork","emperor",38,1,92,8.833,38,0.95,1,1,1,1.464,"emperor",1,NA,31.13
"1053","fee","chowder",39,1,83,10.928,28,0.7,0,0,1,0.977,"",NA,NA,NA
"1053","find","clown",40,1,22,10.937,19,0.475,1,0,0,1.121,"skip",0,NA,8.109
"1053","caring","skirt",1,2,18,7.688,11,0.275,0,1,0,0.96,"",NA,NA,NA
"1053","process","joker",2,2,19,19.521,14,0.35,1,0,0,1.232,"skip",0,NA,12.261
"1053","need","faucet",3,2,10,7.824,2,0.05,0,1,0,1.079,"",NA,NA,NA
"1053","biology","temper",4,2,62,9.433,25,0.625,0,0,1,0.863,"",NA,NA,NA
"1053","find","clown",5,2,22,10.937,19,0.475,1,0,0,1.121,"skip",0,NA,9.493
"1053","calf","annoy",6,2,35,10.24,24,0.6,1,0,0,1.8,"skip",0,NA,5.448
"1053","mill","feast",7,2,15,12.745,6,0.15,0,1,0,1.68,"",NA,NA,NA
"1053","pork","emperor",8,2,92,8.833,38,0.95,1,1,1,1.464,"emperor",1,NA,10.329
"1053","visit","glove",9,2,18,7.736,13,0.325,1,0,0,1.103,"skip",0,NA,6.912
"1053","nerve","bumper",10,2,26,10.001,21,0.525,0,0,1,0.928,"",NA,NA,NA
"1053","shrink","mafia",11,2,12,7.793,3,0.075,0,1,0,0.863,"",NA,NA,NA
"1053","capital","figure",12,2,86,7.176,31,0.775,1,1,1,1.207,"figure",1,NA,4.717
"1053","link","crisis",13,2,90,8.872,36,0.9,1,1,1,18.393,"crisis",1,NA,8.16
"1053","rock","milk",14,2,21,10.505,17,0.425,1,0,0,0.831,"beach",0,NA,4.064
"1053","climax","saucer",15,2,16,8.633,9,0.225,0,0,1,0.889,"",NA,NA,NA
"1053","prison","loaf",16,2,97,3.776,40,1,1,1,1,1.064,"loaf",1,NA,3.44
"1053","risk","zero",17,2,14,6.28,5,0.125,0,1,0,0.911,"",NA,NA,NA
"1053","remind","foam",18,2,27,11.033,23,0.575,1,0,0,1.216,"skip",0,NA,5.152
"1053","chicken","beet",19,2,89,4.536,34,0.85,1,1,1,0.984,"beet",1,NA,4.377
"1053","glue","force",20,2,21,3.728,18,0.45,0,0,1,0.776,"",NA,NA,NA
"1053","replace","roach",21,2,17,8.24,10,0.25,0,1,0,1.016,"",NA,NA,NA
"1053","port","cinema",22,2,20,7.032,16,0.4,0,0,1,0.824,"",NA,NA,NA
"1053","banner","glide",23,2,16,7.168,8,0.2,0,1,0,0.888,"",NA,NA,NA
"1053","want","ascent",24,2,84,7.584,29,0.725,0,0,1,1.304,"",NA,NA,NA
"1053","grip","beach",25,2,23,5.991,20,0.5,1,0,0,0.999,"skip",0,NA,8.072
"1053","bias","sirloin",26,2,94,7.215,39,0.975,1,1,1,3.175,"skip",0,NA,5.065
"1053","pea","bathtub",27,2,91,8.264,37,0.925,1,1,1,1.104,"bathroom",0,NA,8.008
"1053","plant","worm",28,2,3,9.48,1,0.025,0,1,0,0.999,"",NA,NA,NA
"1053","collect","loyalty",29,2,15,12.593,7,0.175,0,1,0,0.792,"",NA,NA,NA
"1053","bleach","ruin",30,2,86,7.08,32,0.8,1,1,1,1.135,"ruin",1,NA,4.257
"1053","anger","decay",31,2,20,8.872,15,0.375,1,0,0,0.928,"skip",0,NA,6.103
"1053","date","laugh",32,2,69,12.465,26,0.65,0,0,1,0.855,"",NA,NA,NA
"1053","smother","surgery",33,2,75,4.896,27,0.675,1,0,0,1.48,"surgery",1,NA,6.664
"1053","fee","chowder",34,2,83,10.928,28,0.7,0,0,1,0.977,"",NA,NA,NA
"1053","fan","feature",35,2,84,7.552,30,0.75,0,0,1,0.831,"",NA,NA,NA
"1053","forest","knob",36,2,26,4.479,22,0.55,0,0,1,0.896,"",NA,NA,NA
"1053","knock","otter",37,2,14,6.184,4,0.1,0,1,0,1.216,"",NA,NA,NA
"1053","copy","bedroom",38,2,18,7.745,12,0.3,1,0,0,0.992,"skip",0,NA,6.096
"1053","bacon","feud",39,2,89,4.808,35,0.875,1,1,1,1.448,"feud",1,NA,4.079
"1053","bullet","walkway",40,2,87,4.313,33,0.825,1,1,1,0.959,"hallway",0,NA,5.064
"1053","fan","feature",1,3,84,7.552,30,0.75,0,0,1,0.831,"",NA,NA,NA
"1053","grip","beach",2,3,23,5.991,20,0.5,1,0,0,0.999,"skip",0,NA,6.014
"1053","process","joker",3,3,19,19.521,14,0.35,1,0,0,1.232,"skip",0,NA,4.377
"1053","prison","loaf",4,3,97,3.776,40,1,1,1,1,1.064,"loaf",1,NA,3.448
"1053","bacon","feud",5,3,89,4.808,35,0.875,1,1,1,1.448,"feud",1,NA,6.048
"1053","pork","emperor",6,3,92,8.833,38,0.95,1,1,1,1.464,"emperor",1,NA,5.321
"1053","port","cinema",7,3,20,7.032,16,0.4,0,0,1,0.824,"",NA,NA,NA
"1053","visit","glove",8,3,18,7.736,13,0.325,1,0,0,1.103,"skip",0,NA,8.682
"1053","smother","surgery",9,3,75,4.896,27,0.675,1,0,0,1.48,"surgery",1,NA,5.111
"1053","find","clown",10,3,22,10.937,19,0.475,1,0,0,1.121,"skip",0,NA,5.136
"1053","bleach","ruin",11,3,86,7.08,32,0.8,1,1,1,1.135,"ruin",1,NA,3.695
"1053","link","crisis",12,3,90,8.872,36,0.9,1,1,1,18.393,"crisis",1,NA,4.264
"1053","pea","bathtub",13,3,91,8.264,37,0.925,1,1,1,1.104,"bathroom",0,NA,5.16
"1053","bias","sirloin",14,3,94,7.215,39,0.975,1,1,1,3.175,"skip",0,NA,4.76
"1053","glue","force",15,3,21,3.728,18,0.45,0,0,1,0.776,"",NA,NA,NA
"1053","rock","milk",16,3,21,10.505,17,0.425,1,0,0,0.831,"beach",0,NA,6.077
"1053","plant","worm",17,3,3,9.48,1,0.025,0,1,0,0.999,"",NA,NA,NA
"1053","replace","roach",18,3,17,8.24,10,0.25,0,1,0,1.016,"",NA,NA,NA
"1053","capital","figure",19,3,86,7.176,31,0.775,1,1,1,1.207,"figure",1,NA,4.159
"1053","chicken","beet",20,3,89,4.536,34,0.85,1,1,1,0.984,"beet",1,NA,5.872
"1053","calf","annoy",21,3,35,10.24,24,0.6,1,0,0,1.8,"skip",0,NA,4.304
"1053","climax","saucer",22,3,16,8.633,9,0.225,0,0,1,0.889,"",NA,NA,NA
"1053","anger","decay",23,3,20,8.872,15,0.375,1,0,0,0.928,"skip",0,NA,3.834
"1053","want","ascent",24,3,84,7.584,29,0.725,0,0,1,1.304,"",NA,NA,NA
"1053","biology","temper",25,3,62,9.433,25,0.625,0,0,1,0.863,"",NA,NA,NA
"1053","remind","foam",26,3,27,11.033,23,0.575,1,0,0,1.216,"skip",0,NA,4.312
"1053","forest","knob",27,3,26,4.479,22,0.55,0,0,1,0.896,"",NA,NA,NA
"1053","banner","glide",28,3,16,7.168,8,0.2,0,1,0,0.888,"",NA,NA,NA
"1053","date","laugh",29,3,69,12.465,26,0.65,0,0,1,0.855,"",NA,NA,NA
"1053","need","faucet",30,3,10,7.824,2,0.05,0,1,0,1.079,"",NA,NA,NA
"1053","knock","otter",31,3,14,6.184,4,0.1,0,1,0,1.216,"",NA,NA,NA
"1053","caring","skirt",32,3,18,7.688,11,0.275,0,1,0,0.96,"",NA,NA,NA
"1053","risk","zero",33,3,14,6.28,5,0.125,0,1,0,0.911,"",NA,NA,NA
"1053","shrink","mafia",34,3,12,7.793,3,0.075,0,1,0,0.863,"",NA,NA,NA
"1053","fee","chowder",35,3,83,10.928,28,0.7,0,0,1,0.977,"",NA,NA,NA
"1053","bullet","walkway",36,3,87,4.313,33,0.825,1,1,1,0.959,"hallway",0,NA,5.711
"1053","mill","feast",37,3,15,12.745,6,0.15,0,1,0,1.68,"",NA,NA,NA
"1053","copy","bedroom",38,3,18,7.745,12,0.3,1,0,0,0.992,"skip",0,NA,4.134
"1053","nerve","bumper",39,3,26,10.001,21,0.525,0,0,1,0.928,"",NA,NA,NA
"1053","collect","loyalty",40,3,15,12.593,7,0.175,0,1,0,0.792,"",NA,NA,NA
"1055","process","joker",1,1,25,3.415,18,0.45,1,1,1,1.566,"dog",0,NA,62.133
"1055","prison","loaf",2,1,71,7.157,35,0.875,1,0,0,1.117,"loaf",1,NA,14.277
"1055","nerve","bumper",3,1,22,4.171,15,0.375,0,1,0,5.869,"",NA,NA,NA
"1055","bleach","ruin",4,1,100,6.454,40,1,1,1,1,1.341,"ruin",1,NA,15.116
"1055","want","ascent",5,1,26,9.916,19,0.475,0,1,0,1.318,"",NA,NA,NA
"1055","biology","temper",6,1,17,3.02,10,0.25,0,0,1,8.072,"",NA,NA,NA
"1055","pea","bathtub",7,1,22,3.991,16,0.4,0,1,0,1.604,"",NA,NA,NA
"1055","fee","chowder",8,1,16,2.743,8,0.2,0,0,1,1.31,"",NA,NA,NA
"1055","calf","annoy",9,1,49,45.151,31,0.775,1,0,0,1.206,"cat",0,NA,32.479
"1055","shrink","mafia",10,1,31,2.876,23,0.575,1,1,1,7.255,"no",0,NA,18.735
"1055","pork","emperor",11,1,74,3.252,37,0.925,1,0,0,0.872,"belly",0,NA,17.541
"1055","capital","figure",12,1,73,4.04,36,0.9,1,0,0,0.933,"figure",1,NA,13.66
"1055","caring","skirt",13,1,11,4.035,2,0.05,0,0,1,6.829,"",NA,NA,NA
"1055","date","laugh",14,1,67,9.719,34,0.85,1,0,0,1.797,"laugh",1,NA,23.207
"1055","glue","force",15,1,15,4.11,3,0.075,0,0,1,7.631,"",NA,NA,NA
"1055","rock","milk",16,1,58,3.087,33,0.825,1,1,1,4.216,"zero",0,NA,20.87
"1055","risk","zero",17,1,36,3.508,27,0.675,0,1,0,1.07,"",NA,NA,NA
"1055","link","crisis",18,1,18,2.845,11,0.275,0,1,0,1.533,"",NA,NA,NA
"1055","smother","surgery",19,1,16,8.245,7,0.175,0,0,1,1.045,"",NA,NA,NA
"1055","banner","glide",20,1,11,17.67,1,0.025,0,0,1,3.811,"",NA,NA,NA
"1055","plant","worm",21,1,79,2.814,39,0.975,1,0,0,1.06,"dig",0,NA,37.717
"1055","remind","foam",22,1,20,3.116,14,0.35,1,1,1,1.624,"saucer",0,NA,19.131
"1055","anger","decay",23,1,52,13.313,32,0.8,1,0,0,13.139,"happy",0,NA,9.514
"1055","fan","feature",24,1,34,3.077,26,0.65,0,1,0,7.214,"",NA,NA,NA
"1055","visit","glove",25,1,36,3.277,28,0.7,1,0,0,0.799,"try",0,NA,16.881
"1055","bullet","walkway",26,1,20,12.573,13,0.325,1,1,1,1.198,"bite",0,NA,7.104
"1055","find","clown",27,1,16,3.376,5,0.125,0,1,0,8.109,"",NA,NA,NA
"1055","port","cinema",28,1,78,5.076,38,0.95,1,0,0,1.23,"cinema",1,NA,17.811
"1055","collect","loyalty",29,1,34,4.763,25,0.625,0,1,0,2.328,"",NA,NA,NA
"1055","chicken","beet",30,1,41,5.526,30,0.75,1,1,1,1.741,"beet",1,NA,20.982
"1055","bacon","feud",31,1,17,4.671,9,0.225,0,0,1,2.128,"",NA,NA,NA
"1055","copy","bedroom",32,1,22,3.797,17,0.425,1,1,1,1.23,"bedroom",1,NA,24.035
"1055","forest","knob",33,1,26,4.91,20,0.5,1,1,1,3.526,"tree",0,NA,11.958
"1055","need","faucet",34,1,16,3.503,6,0.15,0,0,1,1.135,"",NA,NA,NA
"1055","bias","sirloin",35,1,30,10.637,22,0.55,0,1,0,0.997,"",NA,NA,NA
"1055","mill","feast",36,1,37,4.278,29,0.725,1,0,0,2.749,"no",0,NA,28.761
"1055","climax","saucer",37,1,15,8.309,4,0.1,0,0,1,1.39,"",NA,NA,NA
"1055","grip","beach",38,1,32,12.78,24,0.6,0,1,0,1.301,"",NA,NA,NA
"1055","replace","roach",39,1,27,4.733,21,0.525,1,1,1,1.022,"no",0,NA,22.473
"1055","knock","otter",40,1,18,3.293,12,0.3,0,0,1,1.526,"",NA,NA,NA
"1055","port","cinema",1,2,78,5.076,38,0.95,1,0,0,1.23,"cinema",1,NA,12.876
"1055","remind","foam",2,2,20,3.116,14,0.35,1,1,1,1.624,"replace",0,NA,13.149
"1055","fee","chowder",3,2,16,2.743,8,0.2,0,0,1,1.31,"",NA,NA,NA
"1055","shrink","mafia",4,2,31,2.876,23,0.575,1,1,1,7.255,"glove",0,NA,11.043
"1055","pea","bathtub",5,2,22,3.991,16,0.4,0,1,0,1.604,"",NA,NA,NA
"1055","capital","figure",6,2,73,4.04,36,0.9,1,0,0,0.933,"no",0,NA,37.149
"1055","fan","feature",7,2,34,3.077,26,0.65,0,1,0,7.214,"",NA,NA,NA
"1055","bias","sirloin",8,2,30,10.637,22,0.55,0,1,0,0.997,"",NA,NA,NA
"1055","copy","bedroom",9,2,22,3.797,17,0.425,1,1,1,1.23,"bedroom",1,NA,20.898
"1055","biology","temper",10,2,17,3.02,10,0.25,0,0,1,8.072,"",NA,NA,NA
"1055","collect","loyalty",11,2,34,4.763,25,0.625,0,1,0,2.328,"",NA,NA,NA
"1055","replace","roach",12,2,27,4.733,21,0.525,1,1,1,1.022,"no",0,NA,14.824
"1055","anger","decay",13,2,52,13.313,32,0.8,1,0,0,13.139,"decay",1,NA,10.768
"1055","grip","beach",14,2,32,12.78,24,0.6,0,1,0,1.301,"",NA,NA,NA
"1055","bacon","feud",15,2,17,4.671,9,0.225,0,0,1,2.128,"",NA,NA,NA
"1055","prison","loaf",16,2,71,7.157,35,0.875,1,0,0,1.117,"loaf",1,NA,13.28
"1055","link","crisis",17,2,18,2.845,11,0.275,0,1,0,1.533,"",NA,NA,NA
"1055","caring","skirt",18,2,11,4.035,2,0.05,0,0,1,6.829,"",NA,NA,NA
"1055","chicken","beet",19,2,41,5.526,30,0.75,1,1,1,1.741,"beet",1,NA,14.904
"1055","smother","surgery",20,2,16,8.245,7,0.175,0,0,1,1.045,"",NA,NA,NA
"1055","mill","feast",21,2,37,4.278,29,0.725,1,0,0,2.749,"no",0,NA,5.14
"1055","rock","milk",22,2,58,3.087,33,0.825,1,1,1,4.216,"milk",1,NA,34.255
"1055","find","clown",23,2,16,3.376,5,0.125,0,1,0,8.109,"",NA,NA,NA
"1055","forest","knob",24,2,26,4.91,20,0.5,1,1,1,3.526,"tree",0,NA,8.644
"1055","risk","zero",25,2,36,3.508,27,0.675,0,1,0,1.07,"",NA,NA,NA
"1055","process","joker",26,2,25,3.415,18,0.45,1,1,1,1.566,"no",0,NA,26.678
"1055","banner","glide",27,2,11,17.67,1,0.025,0,0,1,3.811,"",NA,NA,NA
"1055","date","laugh",28,2,67,9.719,34,0.85,1,0,0,1.797,"laugh",1,NA,11.333
"1055","bullet","walkway",29,2,20,12.573,13,0.325,1,1,1,1.198,"no",0,NA,17.032
"1055","nerve","bumper",30,2,22,4.171,15,0.375,0,1,0,5.869,"",NA,NA,NA
"1055","want","ascent",31,2,26,9.916,19,0.475,0,1,0,1.318,"",NA,NA,NA
"1055","calf","annoy",32,2,49,45.151,31,0.775,1,0,0,1.206,"no",0,NA,16.027
"1055","visit","glove",33,2,36,3.277,28,0.7,1,0,0,0.799,"no",0,NA,18.99
"1055","climax","saucer",34,2,15,8.309,4,0.1,0,0,1,1.39,"",NA,NA,NA
"1055","need","faucet",35,2,16,3.503,6,0.15,0,0,1,1.135,"",NA,NA,NA
"1055","plant","worm",36,2,79,2.814,39,0.975,1,0,0,1.06,"worm",1,NA,9.714
"1055","pork","emperor",37,2,74,3.252,37,0.925,1,0,0,0.872,"no",0,NA,25.223
"1055","knock","otter",38,2,18,3.293,12,0.3,0,0,1,1.526,"",NA,NA,NA
"1055","glue","force",39,2,15,4.11,3,0.075,0,0,1,7.631,"",NA,NA,NA
"1055","bleach","ruin",40,2,100,6.454,40,1,1,1,1,1.341,"ruin",1,NA,8.961
"1055","prison","loaf",1,3,71,7.157,35,0.875,1,0,0,1.117,"no",0,NA,8.657
"1055","capital","figure",2,3,73,4.04,36,0.9,1,0,0,0.933,"figure",1,NA,12.092
"1055","knock","otter",3,3,18,3.293,12,0.3,0,0,1,1.526,"",NA,NA,NA
"1055","nerve","bumper",4,3,22,4.171,15,0.375,0,1,0,5.869,"",NA,NA,NA
"1055","port","cinema",5,3,78,5.076,38,0.95,1,0,0,1.23,"cinema",1,NA,19.421
"1055","find","clown",6,3,16,3.376,5,0.125,0,1,0,8.109,"",NA,NA,NA
"1055","banner","glide",7,3,11,17.67,1,0.025,0,0,1,3.811,"",NA,NA,NA
"1055","rock","milk",8,3,58,3.087,33,0.825,1,1,1,4.216,"milk",1,NA,10.266
"1055","need","faucet",9,3,16,3.503,6,0.15,0,0,1,1.135,"",NA,NA,NA
"1055","collect","loyalty",10,3,34,4.763,25,0.625,0,1,0,2.328,"",NA,NA,NA
"1055","bacon","feud",11,3,17,4.671,9,0.225,0,0,1,2.128,"",NA,NA,NA
"1055","bias","sirloin",12,3,30,10.637,22,0.55,0,1,0,0.997,"",NA,NA,NA
"1055","chicken","beet",13,3,41,5.526,30,0.75,1,1,1,1.741,"beet",1,NA,6.142
"1055","climax","saucer",14,3,15,8.309,4,0.1,0,0,1,1.39,"",NA,NA,NA
"1055","calf","annoy",15,3,49,45.151,31,0.775,1,0,0,1.206,"no",0,NA,11.29
"1055","bleach","ruin",16,3,100,6.454,40,1,1,1,1,1.341,"ruin",1,NA,5.2
"1055","shrink","mafia",17,3,31,2.876,23,0.575,1,1,1,7.255,"no",0,NA,25.552
"1055","plant","worm",18,3,79,2.814,39,0.975,1,0,0,1.06,"worm",1,NA,11.11
"1055","process","joker",19,3,25,3.415,18,0.45,1,1,1,1.566,"no",0,NA,6.348
"1055","mill","feast",20,3,37,4.278,29,0.725,1,0,0,2.749,"no",0,NA,28.205
"1055","replace","roach",21,3,27,4.733,21,0.525,1,1,1,1.022,"no",0,NA,7.977
"1055","glue","force",22,3,15,4.11,3,0.075,0,0,1,7.631,"",NA,NA,NA
"1055","fee","chowder",23,3,16,2.743,8,0.2,0,0,1,1.31,"",NA,NA,NA
"1055","risk","zero",24,3,36,3.508,27,0.675,0,1,0,1.07,"",NA,NA,NA
"1055","visit","glove",25,3,36,3.277,28,0.7,1,0,0,0.799,"no",0,NA,11.281
"1055","date","laugh",26,3,67,9.719,34,0.85,1,0,0,1.797,"laugh",1,NA,7.085
"1055","biology","temper",27,3,17,3.02,10,0.25,0,0,1,8.072,"",NA,NA,NA
"1055","pea","bathtub",28,3,22,3.991,16,0.4,0,1,0,1.604,"",NA,NA,NA
"1055","remind","foam",29,3,20,3.116,14,0.35,1,1,1,1.624,"no",0,NA,17.906
"1055","caring","skirt",30,3,11,4.035,2,0.05,0,0,1,6.829,"",NA,NA,NA
"1055","fan","feature",31,3,34,3.077,26,0.65,0,1,0,7.214,"",NA,NA,NA
"1055","smother","surgery",32,3,16,8.245,7,0.175,0,0,1,1.045,"",NA,NA,NA
"1055","want","ascent",33,3,26,9.916,19,0.475,0,1,0,1.318,"",NA,NA,NA
"1055","forest","knob",34,3,26,4.91,20,0.5,1,1,1,3.526,"no",0,NA,20.192
"1055","bullet","walkway",35,3,20,12.573,13,0.325,1,1,1,1.198,"no",0,NA,9.152
"1055","link","crisis",36,3,18,2.845,11,0.275,0,1,0,1.533,"",NA,NA,NA
"1055","anger","decay",37,3,52,13.313,32,0.8,1,0,0,13.139,"decay",1,NA,11.734
"1055","grip","beach",38,3,32,12.78,24,0.6,0,1,0,1.301,"",NA,NA,NA
"1055","copy","bedroom",39,3,22,3.797,17,0.425,1,1,1,1.23,"bedroom",1,NA,13.891
"1055","pork","emperor",40,3,74,3.252,37,0.925,1,0,0,0.872,"no",0,NA,14.623
"1262","want","ascent",1,1,12,35.108,3,0.075,1,0,0,1.15,"bias",0,NA,50.756
"1262","nerve","bumper",2,1,35,3.752,9,0.225,1,0,0,1.038,"bumper",1,NA,6.982
"1262","pea","bathtub",3,1,63,6.447,26,0.65,0,1,0,0.878,"",NA,NA,NA
"1262","bias","sirloin",4,1,70,7.989,30,0.75,0,0,1,41.024,"",NA,NA,NA
"1262","process","joker",5,1,41,17.932,11,0.275,1,0,0,1.022,"joker",1,NA,17.783
"1262","find","clown",6,1,53,12.097,13,0.325,1,0,0,1.26,"clown",1,NA,14.318
"1262","remind","foam",7,1,54,41.487,14,0.35,1,1,1,1.087,"figure",0,NA,26.312
"1262","calf","annoy",8,1,58,4.342,18,0.45,0,1,0,0.951,"",NA,NA,NA
"1262","port","cinema",9,1,8,52.815,2,0.05,1,1,1,1.334,"replace",0,NA,31.127
"1262","link","crisis",10,1,79,4.929,33,0.825,0,1,0,3.546,"",NA,NA,NA
"1262","capital","figure",11,1,94,6.737,39,0.975,0,0,1,1.165,"",NA,NA,NA
"1262","caring","skirt",12,1,21,38.534,4,0.1,1,1,1,1.007,"blade",0,NA,47.207
"1262","bullet","walkway",13,1,68,21.711,29,0.725,1,1,1,1.133,"walkway",1,NA,14.207
"1262","chicken","beet",14,1,85,30.399,37,0.925,0,0,1,5.823,"",NA,NA,NA
"1262","date","laugh",15,1,81,20.151,35,0.875,0,0,1,6.263,"",NA,NA,NA
"1262","risk","zero",16,1,26,26.152,5,0.125,1,0,0,0.895,"link",0,NA,57.781
"1262","collect","loyalty",17,1,36,45.272,10,0.25,1,1,1,1.31,"loyalty",1,NA,19.832
"1262","mill","feast",18,1,58,3.285,19,0.475,0,1,0,0.977,"",NA,NA,NA
"1262","pork","emperor",19,1,57,18.463,15,0.375,1,1,1,0.935,"emperor",1,NA,14.757
"1262","plant","worm",20,1,65,11.574,27,0.675,0,1,0,0.903,"",NA,NA,NA
"1262","prison","loaf",21,1,60,62.735,22,0.55,1,1,1,1.455,"date",0,NA,78.54
"1262","glue","force",22,1,59,2.976,21,0.525,0,1,0,0.792,"",NA,NA,NA
"1262","grip","beach",23,1,71,2.375,31,0.775,0,0,1,1.623,"",NA,NA,NA
"1262","smother","surgery",24,1,63,35.973,24,0.6,0,1,0,6.75,"",NA,NA,NA
"1262","fan","feature",25,1,33,23.552,7,0.175,1,0,0,1.087,"feature",1,NA,12.839
"1262","need","faucet",26,1,32,23.847,6,0.15,1,1,1,1.095,"right",0,NA,60.126
"1262","climax","saucer",27,1,60,11.022,23,0.575,0,1,0,3.54,"",NA,NA,NA
"1262","forest","knob",28,1,85,35.635,38,0.95,0,0,1,1.051,"",NA,NA,NA
"1262","copy","bedroom",29,1,58,13.359,17,0.425,1,0,0,0.816,"pork",0,NA,47.012
"1262","fee","chowder",30,1,81,53.311,36,0.9,0,0,1,0.982,"",NA,NA,NA
"1262","visit","glove",31,1,80,11.519,34,0.85,0,0,1,1.207,"",NA,NA,NA
"1262","anger","decay",32,1,41,3.208,12,0.3,1,0,0,0.798,"decay",1,NA,32.19
"1262","replace","roach",33,1,71,4.831,32,0.8,0,0,1,1.35,"",NA,NA,NA
"1262","rock","milk",34,1,57,11.335,16,0.4,1,0,0,1.063,"milk",1,NA,15.183
"1262","bleach","ruin",35,1,66,2.982,28,0.7,0,1,0,1.175,"",NA,NA,NA
"1262","biology","temper",36,1,33,19.879,8,0.2,1,0,0,0.782,"temper",1,NA,21.881
"1262","knock","otter",37,1,59,81.104,20,0.5,1,1,1,2.188,"glad",0,NA,39.32
"1262","banner","glide",38,1,4,34.135,1,0.025,1,1,1,1.111,"yard",0,NA,38.223
"1262","shrink","mafia",39,1,63,9.656,25,0.625,0,1,0,0.855,"",NA,NA,NA
"1262","bacon","feud",40,1,95,38.583,40,1,0,0,1,1.2,"",NA,NA,NA
"1262","risk","zero",1,2,26,26.152,5,0.125,1,0,0,0.895,"roach",0,NA,72.708
"1262","fan","feature",2,2,33,23.552,7,0.175,1,0,0,1.087,"feature",1,NA,11.919
"1262","copy","bedroom",3,2,58,13.359,17,0.425,1,0,0,0.816,"mill",0,NA,34.727
"1262","replace","roach",4,2,71,4.831,32,0.8,0,0,1,1.35,"",NA,NA,NA
"1262","chicken","beet",5,2,85,30.399,37,0.925,0,0,1,5.823,"",NA,NA,NA
"1262","smother","surgery",6,2,63,35.973,24,0.6,0,1,0,6.75,"",NA,NA,NA
"1262","bacon","feud",7,2,95,38.583,40,1,0,0,1,1.2,"",NA,NA,NA
"1262","knock","otter",8,2,59,81.104,20,0.5,1,1,1,2.188,"otter",1,NA,26.126
"1262","pea","bathtub",9,2,63,6.447,26,0.65,0,1,0,0.878,"",NA,NA,NA
"1262","collect","loyalty",10,2,36,45.272,10,0.25,1,1,1,1.31,"replace",0,NA,34.511
"1262","want","ascent",11,2,12,35.108,3,0.075,1,0,0,1.15,"boss",0,NA,29.279
"1262","bullet","walkway",12,2,68,21.711,29,0.725,1,1,1,1.133,"walkway",1,NA,26.255
"1262","shrink","mafia",13,2,63,9.656,25,0.625,0,1,0,0.855,"",NA,NA,NA
"1262","port","cinema",14,2,8,52.815,2,0.05,1,1,1,1.334,"find",0,NA,47.773
"1262","find","clown",15,2,53,12.097,13,0.325,1,0,0,1.26,"clown",1,NA,8.896
"1262","mill","feast",16,2,58,3.285,19,0.475,0,1,0,0.977,"",NA,NA,NA
"1262","biology","temper",17,2,33,19.879,8,0.2,1,0,0,0.782,"temper",1,NA,19.361
"1262","link","crisis",18,2,79,4.929,33,0.825,0,1,0,3.546,"",NA,NA,NA
"1262","visit","glove",19,2,80,11.519,34,0.85,0,0,1,1.207,"",NA,NA,NA
"1262","grip","beach",20,2,71,2.375,31,0.775,0,0,1,1.623,"",NA,NA,NA
"1262","process","joker",21,2,41,17.932,11,0.275,1,0,0,1.022,"joker",1,NA,23.1
"1262","calf","annoy",22,2,58,4.342,18,0.45,0,1,0,0.951,"",NA,NA,NA
"1262","plant","worm",23,2,65,11.574,27,0.675,0,1,0,0.903,"",NA,NA,NA
"1262","anger","decay",24,2,41,3.208,12,0.3,1,0,0,0.798,"decay",1,NA,40.775
"1262","climax","saucer",25,2,60,11.022,23,0.575,0,1,0,3.54,"",NA,NA,NA
"1262","pork","emperor",26,2,57,18.463,15,0.375,1,1,1,0.935,"emperor",1,NA,16.228
"1262","fee","chowder",27,2,81,53.311,36,0.9,0,0,1,0.982,"",NA,NA,NA
"1262","capital","figure",28,2,94,6.737,39,0.975,0,0,1,1.165,"",NA,NA,NA
"1262","remind","foam",29,2,54,41.487,14,0.35,1,1,1,1.087,"foam",1,NA,25.692
"1262","date","laugh",30,2,81,20.151,35,0.875,0,0,1,6.263,"",NA,NA,NA
"1262","bleach","ruin",31,2,66,2.982,28,0.7,0,1,0,1.175,"",NA,NA,NA
"1262","rock","milk",32,2,57,11.335,16,0.4,1,0,0,1.063,"glade",0,NA,65.75
"1262","caring","skirt",33,2,21,38.534,4,0.1,1,1,1,1.007,"fear",0,NA,54.816
"1262","glue","force",34,2,59,2.976,21,0.525,0,1,0,0.792,"",NA,NA,NA
"1262","forest","knob",35,2,85,35.635,38,0.95,0,0,1,1.051,"",NA,NA,NA
"1262","banner","glide",36,2,4,34.135,1,0.025,1,1,1,1.111,"cow",0,NA,62.427
"1262","bias","sirloin",37,2,70,7.989,30,0.75,0,0,1,41.024,"",NA,NA,NA
"1262","need","faucet",38,2,32,23.847,6,0.15,1,1,1,1.095,"chicken",0,NA,94.951
"1262","prison","loaf",39,2,60,62.735,22,0.55,1,1,1,1.455,"food",0,NA,36.101
"1262","nerve","bumper",40,2,35,3.752,9,0.225,1,0,0,1.038,"bumper",1,NA,16.266
"1262","climax","saucer",1,3,60,11.022,23,0.575,0,1,0,3.54,"",NA,NA,NA
"1262","copy","bedroom",2,3,58,13.359,17,0.425,1,0,0,0.816,"bedroom",1,NA,46.596
"1262","calf","annoy",3,3,58,4.342,18,0.45,0,1,0,0.951,"",NA,NA,NA
"1262","collect","loyalty",4,3,36,45.272,10,0.25,1,1,1,1.31,"loyalty",1,NA,49.615
"1262","grip","beach",5,3,71,2.375,31,0.775,0,0,1,1.623,"",NA,NA,NA
"1262","biology","temper",6,3,33,19.879,8,0.2,1,0,0,0.782,"temper",1,NA,9.495
"1262","link","crisis",7,3,79,4.929,33,0.825,0,1,0,3.546,"",NA,NA,NA
"1262","chicken","beet",8,3,85,30.399,37,0.925,0,0,1,5.823,"",NA,NA,NA
"1262","port","cinema",9,3,8,52.815,2,0.05,1,1,1,1.334,"locate",0,NA,38.096
"1262","remind","foam",10,3,54,41.487,14,0.35,1,1,1,1.087,"foam",1,NA,36.99
"1262","fee","chowder",11,3,81,53.311,36,0.9,0,0,1,0.982,"",NA,NA,NA
"1262","mill","feast",12,3,58,3.285,19,0.475,0,1,0,0.977,"",NA,NA,NA
"1262","smother","surgery",13,3,63,35.973,24,0.6,0,1,0,6.75,"",NA,NA,NA
"1262","plant","worm",14,3,65,11.574,27,0.675,0,1,0,0.903,"",NA,NA,NA
"1262","shrink","mafia",15,3,63,9.656,25,0.625,0,1,0,0.855,"",NA,NA,NA
"1262","bias","sirloin",16,3,70,7.989,30,0.75,0,0,1,41.024,"",NA,NA,NA
"1262","process","joker",17,3,41,17.932,11,0.275,1,0,0,1.022,"joker",1,NA,12.723
"1262","caring","skirt",18,3,21,38.534,4,0.1,1,1,1,1.007,"cars",0,NA,29.727
"1262","date","laugh",19,3,81,20.151,35,0.875,0,0,1,6.263,"",NA,NA,NA
"1262","prison","loaf",20,3,60,62.735,22,0.55,1,1,1,1.455,"food",0,NA,28.663
"1262","forest","knob",21,3,85,35.635,38,0.95,0,0,1,1.051,"",NA,NA,NA
"1262","anger","decay",22,3,41,3.208,12,0.3,1,0,0,0.798,"decay",1,NA,25.547
"1262","find","clown",23,3,53,12.097,13,0.325,1,0,0,1.26,"clown",1,NA,20.144
"1262","glue","force",24,3,59,2.976,21,0.525,0,1,0,0.792,"",NA,NA,NA
"1262","need","faucet",25,3,32,23.847,6,0.15,1,1,1,1.095,"speed",0,NA,19.35
"1262","capital","figure",26,3,94,6.737,39,0.975,0,0,1,1.165,"",NA,NA,NA
"1262","risk","zero",27,3,26,26.152,5,0.125,1,0,0,0.895,"averse",0,NA,17.366
"1262","pea","bathtub",28,3,63,6.447,26,0.65,0,1,0,0.878,"",NA,NA,NA
"1262","bleach","ruin",29,3,66,2.982,28,0.7,0,1,0,1.175,"",NA,NA,NA
"1262","visit","glove",30,3,80,11.519,34,0.85,0,0,1,1.207,"",NA,NA,NA
"1262","knock","otter",31,3,59,81.104,20,0.5,1,1,1,2.188,"otter",1,NA,13.966
"1262","rock","milk",32,3,57,11.335,16,0.4,1,0,0,1.063,"milk",1,NA,17.823
"1262","fan","feature",33,3,33,23.552,7,0.175,1,0,0,1.087,"feature",1,NA,26.935
"1262","bullet","walkway",34,3,68,21.711,29,0.725,1,1,1,1.133,"walkway",1,NA,18.487
"1262","want","ascent",35,3,12,35.108,3,0.075,1,0,0,1.15,"need",0,NA,20.055
"1262","banner","glide",36,3,4,34.135,1,0.025,1,1,1,1.111,"year",0,NA,13.622
"1262","pork","emperor",37,3,57,18.463,15,0.375,1,1,1,0.935,"emperor",1,NA,8.928
"1262","replace","roach",38,3,71,4.831,32,0.8,0,0,1,1.35,"",NA,NA,NA
"1262","nerve","bumper",39,3,35,3.752,9,0.225,1,0,0,1.038,"bumper",1,NA,25.191
"1262","bacon","feud",40,3,95,38.583,40,1,0,0,1,1.2,"",NA,NA,NA
"1265","banner","glide",1,1,1,3.522,4,0.1,0,1,0,1.145,"",NA,NA,NA
"1265","calf","annoy",2,1,1,4.852,1,0.025,0,0,1,3.915,"",NA,NA,NA
"1265","grip","beach",3,1,1,2.149,18,0.45,1,0,0,0.735,"skip",0,NA,8.408
"1265","shrink","mafia",4,1,73,5.382,37,0.925,1,0,0,1.414,"skirt",0,NA,3.809
"1265","anger","decay",5,1,1,2.854,22,0.55,0,0,1,1.382,"",NA,NA,NA
"1265","want","ascent",6,1,1,2.669,5,0.125,0,1,0,1.03,"",NA,NA,NA
"1265","bullet","walkway",7,1,1,2.556,8,0.2,0,1,0,0.927,"",NA,NA,NA
"1265","remind","foam",8,1,19,4.504,36,0.9,1,1,1,9.993,"skip",0,NA,5.709
"1265","pork","emperor",9,1,1,3.739,2,0.05,0,0,1,2.114,"",NA,NA,NA
"1265","prison","loaf",10,1,1,2.004,28,0.7,1,1,1,0.733,"skip",0,NA,6.719
"1265","fee","chowder",11,1,1,3.174,25,0.625,0,0,1,0.718,"",NA,NA,NA
"1265","replace","roach",12,1,1,2.424,23,0.575,0,0,1,1.718,"",NA,NA,NA
"1265","pea","bathtub",13,1,100,4.229,39,0.975,1,0,0,1.135,"bathroom",0,NA,5.053
"1265","bacon","feud",14,1,100,5.655,40,1,1,1,1,0.804,"feud",1,NA,3.63
"1265","process","joker",15,1,1,2.334,34,0.85,1,1,1,0.698,"skip",0,NA,4.215
"1265","need","faucet",16,1,1,2.263,31,0.775,1,1,1,0.661,"skip",0,NA,3.682
"1265","climax","saucer",17,1,1,3.096,15,0.375,1,0,0,1.074,"ascent",0,NA,3.938
"1265","chicken","beet",18,1,99,2.551,38,0.95,1,1,1,0.749,"beet",1,NA,3.002
"1265","forest","knob",19,1,1,2.133,19,0.475,1,0,0,0.75,"skip",0,NA,3.893
"1265","caring","skirt",20,1,1,2.101,33,0.825,1,1,1,1.053,"skip",0,NA,3.224
"1265","port","cinema",21,1,4,2.764,35,0.875,1,0,0,0.806,"skip",0,NA,3.086
"1265","risk","zero",22,1,1,2.386,21,0.525,1,0,0,0.956,"skip",0,NA,3.39
"1265","copy","bedroom",23,1,1,2.225,30,0.75,1,1,1,0.71,"skip",0,NA,3.437
"1265","capital","figure",24,1,1,3.409,3,0.075,0,1,0,0.913,"",NA,NA,NA
"1265","smother","surgery",25,1,1,2.808,29,0.725,1,1,1,1.481,"annoy",0,NA,6.178
"1265","find","clown",26,1,1,2.254,14,0.35,0,1,0,0.839,"",NA,NA,NA
"1265","plant","worm",27,1,1,2.646,7,0.175,0,1,0,0.933,"",NA,NA,NA
"1265","knock","otter",28,1,1,2.182,17,0.425,1,0,0,0.742,"skip",0,NA,4.649
"1265","rock","milk",29,1,1,2.757,11,0.275,0,0,1,0.77,"",NA,NA,NA
"1265","collect","loyalty",30,1,1,2.204,16,0.4,1,0,0,0.913,"skip",0,NA,4.787
"1265","date","laugh",31,1,1,1.887,32,0.8,1,1,1,0.73,"skip",0,NA,4.646
"1265","glue","force",32,1,1,2.499,27,0.675,0,0,1,0.797,"",NA,NA,NA
"1265","nerve","bumper",33,1,1,2.815,20,0.5,1,0,0,0.718,"skip",0,NA,5.277
"1265","fan","feature",34,1,1,2.909,6,0.15,0,1,0,1.02,"",NA,NA,NA
"1265","bleach","ruin",35,1,1,2.317,24,0.6,0,0,1,0.846,"",NA,NA,NA
"1265","biology","temper",36,1,1,2.307,9,0.225,0,1,0,0.927,"",NA,NA,NA
"1265","mill","feast",37,1,1,2.719,10,0.25,0,0,1,0.686,"",NA,NA,NA
"1265","visit","glove",38,1,1,2.166,26,0.65,0,0,1,0.678,"",NA,NA,NA
"1265","link","crisis",39,1,1,2.284,13,0.325,0,1,0,0.874,"",NA,NA,NA
"1265","bias","sirloin",40,1,1,3.122,12,0.3,0,1,0,0.938,"",NA,NA,NA
"1265","grip","beach",1,2,1,2.149,18,0.45,1,0,0,0.735,"skip",0,NA,7.953
"1265","bias","sirloin",2,2,1,3.122,12,0.3,0,1,0,0.938,"",NA,NA,NA
"1265","need","faucet",3,2,1,2.263,31,0.775,1,1,1,0.661,"skip",0,NA,4.444
"1265","find","clown",4,2,1,2.254,14,0.35,0,1,0,0.839,"",NA,NA,NA
"1265","rock","milk",5,2,1,2.757,11,0.275,0,0,1,0.77,"",NA,NA,NA
"1265","prison","loaf",6,2,1,2.004,28,0.7,1,1,1,0.733,"walkway",0,NA,4.717
"1265","replace","roach",7,2,1,2.424,23,0.575,0,0,1,1.718,"",NA,NA,NA
"1265","fan","feature",8,2,1,2.909,6,0.15,0,1,0,1.02,"",NA,NA,NA
"1265","glue","force",9,2,1,2.499,27,0.675,0,0,1,0.797,"",NA,NA,NA
"1265","pork","emperor",10,2,1,3.739,2,0.05,0,0,1,2.114,"",NA,NA,NA
"1265","plant","worm",11,2,1,2.646,7,0.175,0,1,0,0.933,"",NA,NA,NA
"1265","bullet","walkway",12,2,1,2.556,8,0.2,0,1,0,0.927,"",NA,NA,NA
"1265","caring","skirt",13,2,1,2.101,33,0.825,1,1,1,1.053,"skirt",1,NA,4.28
"1265","capital","figure",14,2,1,3.409,3,0.075,0,1,0,0.913,"",NA,NA,NA
"1265","mill","feast",15,2,1,2.719,10,0.25,0,0,1,0.686,"",NA,NA,NA
"1265","fee","chowder",16,2,1,3.174,25,0.625,0,0,1,0.718,"",NA,NA,NA
"1265","want","ascent",17,2,1,2.669,5,0.125,0,1,0,1.03,"",NA,NA,NA
"1265","chicken","beet",18,2,99,2.551,38,0.95,1,1,1,0.749,"beet",1,NA,4.261
"1265","visit","glove",19,2,1,2.166,26,0.65,0,0,1,0.678,"",NA,NA,NA
"1265","climax","saucer",20,2,1,3.096,15,0.375,1,0,0,1.074,"skip",0,NA,4.591
"1265","nerve","bumper",21,2,1,2.815,20,0.5,1,0,0,0.718,"skip",0,NA,2.478
"1265","risk","zero",22,2,1,2.386,21,0.525,1,0,0,0.956,"skip",0,NA,3.27
"1265","biology","temper",23,2,1,2.307,9,0.225,0,1,0,0.927,"",NA,NA,NA
"1265","knock","otter",24,2,1,2.182,17,0.425,1,0,0,0.742,"skip",0,NA,5.243
"1265","copy","bedroom",25,2,1,2.225,30,0.75,1,1,1,0.71,"skip",0,NA,3.009
"1265","link","crisis",26,2,1,2.284,13,0.325,0,1,0,0.874,"",NA,NA,NA
"1265","collect","loyalty",27,2,1,2.204,16,0.4,1,0,0,0.913,"skip",0,NA,3.962
"1265","banner","glide",28,2,1,3.522,4,0.1,0,1,0,1.145,"",NA,NA,NA
"1265","bacon","feud",29,2,100,5.655,40,1,1,1,1,0.804,"emperor",0,NA,10.926
"1265","pea","bathtub",30,2,100,4.229,39,0.975,1,0,0,1.135,"bathroom",0,NA,4.461
"1265","forest","knob",31,2,1,2.133,19,0.475,1,0,0,0.75,"skip",0,NA,3.022
"1265","date","laugh",32,2,1,1.887,32,0.8,1,1,1,0.73,"skip",0,NA,2.111
"1265","remind","foam",33,2,19,4.504,36,0.9,1,1,1,9.993,"skip",0,NA,1.935
"1265","calf","annoy",34,2,1,4.852,1,0.025,0,0,1,3.915,"",NA,NA,NA
"1265","anger","decay",35,2,1,2.854,22,0.55,0,0,1,1.382,"",NA,NA,NA
"1265","port","cinema",36,2,4,2.764,35,0.875,1,0,0,0.806,"skip",0,NA,5.689
"1265","process","joker",37,2,1,2.334,34,0.85,1,1,1,0.698,"skip",0,NA,2.014
"1265","shrink","mafia",38,2,73,5.382,37,0.925,1,0,0,1.414,"skip",0,NA,3.014
"1265","smother","surgery",39,2,1,2.808,29,0.725,1,1,1,1.481,"skip",0,NA,1.831
"1265","bleach","ruin",40,2,1,2.317,24,0.6,0,0,1,0.846,"",NA,NA,NA
"1265","pea","bathtub",1,3,100,4.229,39,0.975,1,0,0,1.135,"bathroom",0,NA,6.113
"1265","replace","roach",2,3,1,2.424,23,0.575,0,0,1,1.718,"",NA,NA,NA
"1265","date","laugh",3,3,1,1.887,32,0.8,1,1,1,0.73,"skip",0,NA,3.4
"1265","rock","milk",4,3,1,2.757,11,0.275,0,0,1,0.77,"",NA,NA,NA
"1265","capital","figure",5,3,1,3.409,3,0.075,0,1,0,0.913,"",NA,NA,NA
"1265","bias","sirloin",6,3,1,3.122,12,0.3,0,1,0,0.938,"",NA,NA,NA
"1265","shrink","mafia",7,3,73,5.382,37,0.925,1,0,0,1.414,"skip",0,NA,2.612
"1265","mill","feast",8,3,1,2.719,10,0.25,0,0,1,0.686,"",NA,NA,NA
"1265","forest","knob",9,3,1,2.133,19,0.475,1,0,0,0.75,"skip",0,NA,11.647
"1265","plant","worm",10,3,1,2.646,7,0.175,0,1,0,0.933,"",NA,NA,NA
"1265","fan","feature",11,3,1,2.909,6,0.15,0,1,0,1.02,"",NA,NA,NA
"1265","glue","force",12,3,1,2.499,27,0.675,0,0,1,0.797,"",NA,NA,NA
"1265","copy","bedroom",13,3,1,2.225,30,0.75,1,1,1,0.71,"skip",0,NA,3.365
"1265","smother","surgery",14,3,1,2.808,29,0.725,1,1,1,1.481,"skip",0,NA,1.794
"1265","anger","decay",15,3,1,2.854,22,0.55,0,0,1,1.382,"",NA,NA,NA
"1265","need","faucet",16,3,1,2.263,31,0.775,1,1,1,0.661,"skip",0,NA,4.036
"1265","bullet","walkway",17,3,1,2.556,8,0.2,0,1,0,0.927,"",NA,NA,NA
"1265","bleach","ruin",18,3,1,2.317,24,0.6,0,0,1,0.846,"",NA,NA,NA
"1265","caring","skirt",19,3,1,2.101,33,0.825,1,1,1,1.053,"skip",0,NA,2.207
"1265","bacon","feud",20,3,100,5.655,40,1,1,1,1,0.804,"emperor",0,NA,7.07
"1265","pork","emperor",21,3,1,3.739,2,0.05,0,0,1,2.114,"",NA,NA,NA
"1265","fee","chowder",22,3,1,3.174,25,0.625,0,0,1,0.718,"",NA,NA,NA
"1265","want","ascent",23,3,1,2.669,5,0.125,0,1,0,1.03,"",NA,NA,NA
"1265","port","cinema",24,3,4,2.764,35,0.875,1,0,0,0.806,"skip",0,NA,4.877
"1265","chicken","beet",25,3,99,2.551,38,0.95,1,1,1,0.749,"beet",1,NA,2.961
"1265","link","crisis",26,3,1,2.284,13,0.325,0,1,0,0.874,"",NA,NA,NA
"1265","grip","beach",27,3,1,2.149,18,0.45,1,0,0,0.735,"skip",0,NA,2.271
"1265","process","joker",28,3,1,2.334,34,0.85,1,1,1,0.698,"skip",0,NA,1.759
"1265","knock","otter",29,3,1,2.182,17,0.425,1,0,0,0.742,"skip",0,NA,1.806
"1265","biology","temper",30,3,1,2.307,9,0.225,0,1,0,0.927,"",NA,NA,NA
"1265","visit","glove",31,3,1,2.166,26,0.65,0,0,1,0.678,"",NA,NA,NA
"1265","find","clown",32,3,1,2.254,14,0.35,0,1,0,0.839,"",NA,NA,NA
"1265","prison","loaf",33,3,1,2.004,28,0.7,1,1,1,0.733,"skip",0,NA,3.805
"1265","calf","annoy",34,3,1,4.852,1,0.025,0,0,1,3.915,"",NA,NA,NA
"1265","banner","glide",35,3,1,3.522,4,0.1,0,1,0,1.145,"",NA,NA,NA
"1265","collect","loyalty",36,3,1,2.204,16,0.4,1,0,0,0.913,"skip",0,NA,3.405
"1265","risk","zero",37,3,1,2.386,21,0.525,1,0,0,0.956,"skip",0,NA,1.583
"1265","nerve","bumper",38,3,1,2.815,20,0.5,1,0,0,0.718,"skip",0,NA,1.608
"1265","climax","saucer",39,3,1,3.096,15,0.375,1,0,0,1.074,"skip",0,NA,2.695
"1265","remind","foam",40,3,19,4.504,36,0.9,1,1,1,9.993,"skip",0,NA,2.106
"1342","date","laugh",1,1,100,3.153,39,0.975,0,0,1,1.365,"",NA,NA,NA
"1342","process","joker",2,1,35,44.049,19,0.475,1,1,1,16.238,"joker",1,NA,31.853
"1342","grip","beach",3,1,7,2.824,11,0.275,1,0,0,0.796,"beach",1,NA,26.4
"1342","bias","sirloin",4,1,1,2.297,5,0.125,1,0,0,0.821,"clown",0,NA,8.025
"1342","bleach","ruin",5,1,41,6.991,20,0.5,0,1,0,1.459,"",NA,NA,NA
"1342","link","crisis",6,1,1,2.664,3,0.075,1,0,0,0.831,"crisis",1,NA,29.601
"1342","visit","glove",7,1,59,43.988,21,0.525,1,1,1,1.211,"glove",1,NA,7.484
"1342","biology","temper",8,1,32,35.145,18,0.45,0,1,0,0.952,"",NA,NA,NA
"1342","fee","chowder",9,1,73,10.701,23,0.575,1,1,1,1.069,"chowder",1,NA,19.791
"1342","collect","loyalty",10,1,24,2.692,15,0.375,0,1,0,0.908,"",NA,NA,NA
"1342","capital","figure",11,1,90,2.94,29,0.725,0,0,1,0.85,"",NA,NA,NA
"1342","shrink","mafia",12,1,90,12.03,28,0.7,1,1,1,0.767,"mafia",1,NA,16.933
"1342","nerve","bumper",13,1,1,2.464,8,0.2,1,1,1,1.266,"bump",0,NA,10.96
"1342","fan","feature",14,1,100,2.266,40,1,0,0,1,0.785,"",NA,NA,NA
"1342","risk","zero",15,1,98,4.579,30,0.75,0,0,1,1.21,"",NA,NA,NA
"1342","want","ascent",16,1,100,66.529,33,0.825,0,0,1,1.377,"",NA,NA,NA
"1342","remind","foam",17,1,100,14.57,35,0.875,0,0,1,2.549,"",NA,NA,NA
"1342","port","cinema",18,1,1,2.93,2,0.05,1,0,0,1.198,"cinema",1,NA,8.513
"1342","pea","bathtub",19,1,10,14.034,13,0.325,0,1,0,7.106,"",NA,NA,NA
"1342","forest","knob",20,1,100,3.878,36,0.9,0,0,1,0.998,"",NA,NA,NA
"1342","chicken","beet",21,1,86,2.474,27,0.675,1,1,1,0.866,"globe",0,NA,31.114
"1342","bacon","feud",22,1,1,2.224,7,0.175,1,0,0,0.774,"beef",0,NA,31.964
"1342","replace","roach",23,1,100,4.707,34,0.85,0,0,1,1.124,"",NA,NA,NA
"1342","mill","feast",24,1,77,97.411,24,0.6,1,1,1,0.931,"feast",1,NA,25.563
"1342","caring","skirt",25,1,1,2.704,4,0.1,1,0,0,0.809,"skirt",1,NA,6.296
"1342","plant","worm",26,1,100,14.016,37,0.925,0,0,1,1.237,"",NA,NA,NA
"1342","bullet","walkway",27,1,62,2.109,22,0.55,1,1,1,0.818,"stray",0,NA,11.44
"1342","knock","otter",28,1,1,2.721,6,0.15,1,0,0,0.657,"other",0,NA,28.756
"1342","calf","annoy",29,1,1,7.582,1,0.025,1,0,0,1.235,"utmost",0,NA,14.124
"1342","find","clown",30,1,26,4.507,16,0.4,0,1,0,4.85,"",NA,NA,NA
"1342","smother","surgery",31,1,100,4.108,38,0.95,0,0,1,1.264,"",NA,NA,NA
"1342","rock","milk",32,1,82,3.449,25,0.625,1,1,1,0.917,"milk",1,NA,16.708
"1342","anger","decay",33,1,29,2.546,17,0.425,0,1,0,0.896,"",NA,NA,NA
"1342","glue","force",34,1,100,54.637,32,0.8,0,1,0,8.054,"",NA,NA,NA
"1342","pork","emperor",35,1,86,8.033,26,0.65,1,1,1,0.787,"emporer",0,NA,14.004
"1342","copy","bedroom",36,1,5,2.741,10,0.25,1,0,0,0.695,"room",0,NA,45.305
"1342","climax","saucer",37,1,99,26.856,31,0.775,0,1,0,3.283,"",NA,NA,NA
"1342","need","faucet",38,1,14,2.85,14,0.35,0,1,0,0.738,"",NA,NA,NA
"1342","banner","glide",39,1,9,45.314,12,0.3,0,1,0,1.002,"",NA,NA,NA
"1342","prison","loaf",40,1,2,2.815,9,0.225,1,0,0,0.729,"guard",0,NA,19.61
"1342","biology","temper",1,2,32,35.145,18,0.45,0,1,0,0.952,"",NA,NA,NA
"1342","fee","chowder",2,2,73,10.701,23,0.575,1,1,1,1.069,"chowder",1,NA,21.823
"1342","plant","worm",3,2,100,14.016,37,0.925,0,0,1,1.237,"",NA,NA,NA
"1342","process","joker",4,2,35,44.049,19,0.475,1,1,1,16.238,"joker",1,NA,10.7
"1342","forest","knob",5,2,100,3.878,36,0.9,0,0,1,0.998,"",NA,NA,NA
"1342","rock","milk",6,2,82,3.449,25,0.625,1,1,1,0.917,"milk",1,NA,3.935
"1342","climax","saucer",7,2,99,26.856,31,0.775,0,1,0,3.283,"",NA,NA,NA
"1342","need","faucet",8,2,14,2.85,14,0.35,0,1,0,0.738,"",NA,NA,NA
"1342","nerve","bumper",9,2,1,2.464,8,0.2,1,1,1,1.266,"bumps",0,NA,32.94
"1342","bias","sirloin",10,2,1,2.297,5,0.125,1,0,0,0.821,"smother",0,NA,33.263
"1342","risk","zero",11,2,98,4.579,30,0.75,0,0,1,1.21,"",NA,NA,NA
"1342","capital","figure",12,2,90,2.94,29,0.725,0,0,1,0.85,"",NA,NA,NA
"1342","mill","feast",13,2,77,97.411,24,0.6,1,1,1,0.931,"feast",1,NA,3.636
"1342","prison","loaf",14,2,2,2.815,9,0.225,1,0,0,0.729,"bread",0,NA,13.815
"1342","copy","bedroom",15,2,5,2.741,10,0.25,1,0,0,0.695,"room",0,NA,15.33
"1342","date","laugh",16,2,100,3.153,39,0.975,0,0,1,1.365,"",NA,NA,NA
"1342","grip","beach",17,2,7,2.824,11,0.275,1,0,0,0.796,"beach",1,NA,18.947
"1342","replace","roach",18,2,100,4.707,34,0.85,0,0,1,1.124,"",NA,NA,NA
"1342","anger","decay",19,2,29,2.546,17,0.425,0,1,0,0.896,"",NA,NA,NA
"1342","banner","glide",20,2,9,45.314,12,0.3,0,1,0,1.002,"",NA,NA,NA
"1342","remind","foam",21,2,100,14.57,35,0.875,0,0,1,2.549,"",NA,NA,NA
"1342","shrink","mafia",22,2,90,12.03,28,0.7,1,1,1,0.767,"mafia",1,NA,8.42
"1342","caring","skirt",23,2,1,2.704,4,0.1,1,0,0,0.809,"skirt",1,NA,3.543
"1342","want","ascent",24,2,100,66.529,33,0.825,0,0,1,1.377,"",NA,NA,NA
"1342","bullet","walkway",25,2,62,2.109,22,0.55,1,1,1,0.818,"stray",0,NA,17.225
"1342","fan","feature",26,2,100,2.266,40,1,0,0,1,0.785,"",NA,NA,NA
"1342","collect","loyalty",27,2,24,2.692,15,0.375,0,1,0,0.908,"",NA,NA,NA
"1342","port","cinema",28,2,1,2.93,2,0.05,1,0,0,1.198,"cinema",1,NA,6.521
"1342","link","crisis",29,2,1,2.664,3,0.075,1,0,0,0.831,"crisis",1,NA,24.479
"1342","pork","emperor",30,2,86,8.033,26,0.65,1,1,1,0.787,"emporer",0,NA,4.781
"1342","glue","force",31,2,100,54.637,32,0.8,0,1,0,8.054,"",NA,NA,NA
"1342","calf","annoy",32,2,1,7.582,1,0.025,1,0,0,1.235,"utmost",0,NA,7.303
"1342","smother","surgery",33,2,100,4.108,38,0.95,0,0,1,1.264,"",NA,NA,NA
"1342","pea","bathtub",34,2,10,14.034,13,0.325,0,1,0,7.106,"",NA,NA,NA
"1342","find","clown",35,2,26,4.507,16,0.4,0,1,0,4.85,"",NA,NA,NA
"1342","knock","otter",36,2,1,2.721,6,0.15,1,0,0,0.657,"door",0,NA,11.965
"1342","bleach","ruin",37,2,41,6.991,20,0.5,0,1,0,1.459,"",NA,NA,NA
"1342","chicken","beet",38,2,86,2.474,27,0.675,1,1,1,0.866,"glove",0,NA,33.895
"1342","bacon","feud",39,2,1,2.224,7,0.175,1,0,0,0.774,"beef",0,NA,5.896
"1342","visit","glove",40,2,59,43.988,21,0.525,1,1,1,1.211,"glove",1,NA,4.817
"1342","calf","annoy",1,3,1,7.582,1,0.025,1,0,0,1.235,"utmost",0,NA,5.6
"1342","rock","milk",2,3,82,3.449,25,0.625,1,1,1,0.917,"milk",1,NA,3.46
"1342","plant","worm",3,3,100,14.016,37,0.925,0,0,1,1.237,"",NA,NA,NA
"1342","caring","skirt",4,3,1,2.704,4,0.1,1,0,0,0.809,"skirt",1,NA,3.373
"1342","pork","emperor",5,3,86,8.033,26,0.65,1,1,1,0.787,"emporer",0,NA,9.661
"1342","mill","feast",6,3,77,97.411,24,0.6,1,1,1,0.931,"feast",1,NA,3.119
"1342","bacon","feud",7,3,1,2.224,7,0.175,1,0,0,0.774,"beef",0,NA,3.428
"1342","visit","glove",8,3,59,43.988,21,0.525,1,1,1,1.211,"glove",1,NA,3.468
"1342","knock","otter",9,3,1,2.721,6,0.15,1,0,0,0.657,"door",0,NA,4.114
"1342","collect","loyalty",10,3,24,2.692,15,0.375,0,1,0,0.908,"",NA,NA,NA
"1342","need","faucet",11,3,14,2.85,14,0.35,0,1,0,0.738,"",NA,NA,NA
"1342","replace","roach",12,3,100,4.707,34,0.85,0,0,1,1.124,"",NA,NA,NA
"1342","fan","feature",13,3,100,2.266,40,1,0,0,1,0.785,"",NA,NA,NA
"1342","smother","surgery",14,3,100,4.108,38,0.95,0,0,1,1.264,"",NA,NA,NA
"1342","bullet","walkway",15,3,62,2.109,22,0.55,1,1,1,0.818,"stray",0,NA,5.661
"1342","link","crisis",16,3,1,2.664,3,0.075,1,0,0,0.831,"crisis",1,NA,5.492
"1342","climax","saucer",17,3,99,26.856,31,0.775,0,1,0,3.283,"",NA,NA,NA
"1342","bias","sirloin",18,3,1,2.297,5,0.125,1,0,0,0.821,"steak",0,NA,25.458
"1342","prison","loaf",19,3,2,2.815,9,0.225,1,0,0,0.729,"bread",0,NA,9.154
"1342","copy","bedroom",20,3,5,2.741,10,0.25,1,0,0,0.695,"room",0,NA,21.992
"1342","port","cinema",21,3,1,2.93,2,0.05,1,0,0,1.198,"cinema",1,NA,5.137
"1342","remind","foam",22,3,100,14.57,35,0.875,0,0,1,2.549,"",NA,NA,NA
"1342","bleach","ruin",23,3,41,6.991,20,0.5,0,1,0,1.459,"",NA,NA,NA
"1342","chicken","beet",24,3,86,2.474,27,0.675,1,1,1,0.866,"glove",0,NA,4.74
"1342","fee","chowder",25,3,73,10.701,23,0.575,1,1,1,1.069,"chowder",1,NA,18.731
"1342","forest","knob",26,3,100,3.878,36,0.9,0,0,1,0.998,"",NA,NA,NA
"1342","grip","beach",27,3,7,2.824,11,0.275,1,0,0,0.796,"beach",1,NA,5.389
"1342","banner","glide",28,3,9,45.314,12,0.3,0,1,0,1.002,"",NA,NA,NA
"1342","find","clown",29,3,26,4.507,16,0.4,0,1,0,4.85,"",NA,NA,NA
"1342","capital","figure",30,3,90,2.94,29,0.725,0,0,1,0.85,"",NA,NA,NA
"1342","anger","decay",31,3,29,2.546,17,0.425,0,1,0,0.896,"",NA,NA,NA
"1342","pea","bathtub",32,3,10,14.034,13,0.325,0,1,0,7.106,"",NA,NA,NA
"1342","nerve","bumper",33,3,1,2.464,8,0.2,1,1,1,1.266,"bumps",0,NA,25.098
"1342","date","laugh",34,3,100,3.153,39,0.975,0,0,1,1.365,"",NA,NA,NA
"1342","risk","zero",35,3,98,4.579,30,0.75,0,0,1,1.21,"",NA,NA,NA
"1342","biology","temper",36,3,32,35.145,18,0.45,0,1,0,0.952,"",NA,NA,NA
"1342","process","joker",37,3,35,44.049,19,0.475,1,1,1,16.238,"joker",1,NA,12.73
"1342","want","ascent",38,3,100,66.529,33,0.825,0,0,1,1.377,"",NA,NA,NA
"1342","glue","force",39,3,100,54.637,32,0.8,0,1,0,8.054,"",NA,NA,NA
"1342","shrink","mafia",40,3,90,12.03,28,0.7,1,1,1,0.767,"mafia",1,NA,4.097
"1368","visit","glove",1,1,5,2.879,5,0.125,1,0,0,1.117,"skip",0,NA,42.511
"1368","process","joker",2,1,8,2.781,13,0.325,1,1,1,0.67,"skip",0,NA,5.014
"1368","anger","decay",3,1,13,4.023,21,0.525,1,1,1,0.69,"skip",0,NA,6.741
"1368","collect","loyalty",4,1,3,2.64,2,0.05,1,0,0,2.497,"skip",0,NA,3.926
"1368","climax","saucer",5,1,8,2.665,14,0.35,0,1,0,1.344,"",NA,NA,NA
"1368","nerve","bumper",6,1,16,4.401,28,0.7,0,1,0,1.134,"",NA,NA,NA
"1368","risk","zero",7,1,50,5.268,36,0.9,0,0,1,1.059,"",NA,NA,NA
"1368","grip","beach",8,1,10,3.986,18,0.45,0,1,0,1.193,"",NA,NA,NA
"1368","prison","loaf",9,1,44,3.449,34,0.85,0,0,1,1.012,"",NA,NA,NA
"1368","bias","sirloin",10,1,14,5.404,25,0.625,0,1,0,0.808,"",NA,NA,NA
"1368","pea","bathtub",11,1,70,2.518,38,0.95,0,0,1,1.193,"",NA,NA,NA
"1368","rock","milk",12,1,7,3.951,11,0.275,1,0,0,2.03,"milk",1,NA,4.753
"1368","glue","force",13,1,6,3.13,7,0.175,1,0,0,0.662,"skip",0,NA,3.239
"1368","find","clown",14,1,19,3.168,31,0.775,0,1,0,0.79,"",NA,NA,NA
"1368","chicken","beet",15,1,14,3.513,23,0.575,1,1,1,1,"beet",1,NA,2.035
"1368","forest","knob",16,1,8,3.806,12,0.3,0,1,0,0.783,"",NA,NA,NA
"1368","banner","glide",17,1,11,3.455,20,0.5,0,1,0,0.769,"",NA,NA,NA
"1368","calf","annoy",18,1,26,8.035,32,0.8,0,0,1,0.97,"",NA,NA,NA
"1368","knock","otter",19,1,80,3.817,40,1,0,0,1,1.213,"",NA,NA,NA
"1368","port","cinema",20,1,14,3.677,24,0.6,1,1,1,0.996,"cinema",1,NA,2.752
"1368","fan","feature",21,1,14,6.111,22,0.55,0,1,0,5.448,"",NA,NA,NA
"1368","pork","emperor",22,1,15,8.443,26,0.65,1,1,1,8.313,"emperor",1,NA,3.054
"1368","bacon","feud",23,1,8,4.883,15,0.375,1,1,1,0.853,"skip",0,NA,3.43
"1368","caring","skirt",24,1,10,4.038,19,0.475,1,1,1,1.251,"skip",0,NA,3.02
"1368","replace","roach",25,1,6,2.437,9,0.225,1,0,0,1.975,"skip",0,NA,3.327
"1368","want","ascent",26,1,6,3.247,10,0.25,1,0,0,2.24,"skip",0,NA,3.877
"1368","bleach","ruin",27,1,79,4.198,39,0.975,0,0,1,1.52,"",NA,NA,NA
"1368","remind","foam",28,1,18,2.974,29,0.725,0,1,0,0.723,"",NA,NA,NA
"1368","biology","temper",29,1,49,3.458,35,0.875,0,0,1,0.656,"",NA,NA,NA
"1368","shrink","mafia",30,1,50,3.575,37,0.925,0,0,1,0.629,"",NA,NA,NA
"1368","mill","feast",31,1,10,2.188,17,0.425,0,1,0,0.609,"",NA,NA,NA
"1368","date","laugh",32,1,4,4.409,4,0.1,1,0,0,1.751,"skip",0,NA,3.84
"1368","capital","figure",33,1,15,2.112,27,0.675,1,1,1,0.867,"skip",0,NA,2.656
"1368","fee","chowder",34,1,6,2.123,8,0.2,1,0,0,1.394,"skip",0,NA,2.613
"1368","smother","surgery",35,1,28,2.831,33,0.825,0,0,1,2.078,"",NA,NA,NA
"1368","plant","worm",36,1,19,5.895,30,0.75,0,0,1,0.725,"",NA,NA,NA
"1368","copy","bedroom",37,1,3,4.595,1,0.025,1,0,0,0.936,"skip",0,NA,7.27
"1368","link","crisis",38,1,4,3.02,3,0.075,1,0,0,0.867,"skip",0,NA,2.075
"1368","need","faucet",39,1,9,2.478,16,0.4,1,1,1,2.86,"skip",0,NA,1.954
"1368","bullet","walkway",40,1,5,5.384,6,0.15,1,1,1,2.145,"walkway",1,NA,2.979
"1368","capital","figure",1,2,15,2.112,27,0.675,1,1,1,0.867,"skip",0,NA,2.769
"1368","plant","worm",2,2,19,5.895,30,0.75,0,0,1,0.725,"",NA,NA,NA
"1368","pea","bathtub",3,2,70,2.518,38,0.95,0,0,1,1.193,"",NA,NA,NA
"1368","knock","otter",4,2,80,3.817,40,1,0,0,1,1.213,"",NA,NA,NA
"1368","prison","loaf",5,2,44,3.449,34,0.85,0,0,1,1.012,"",NA,NA,NA
"1368","nerve","bumper",6,2,16,4.401,28,0.7,0,1,0,1.134,"",NA,NA,NA
"1368","need","faucet",7,2,9,2.478,16,0.4,1,1,1,2.86,"skip",0,NA,3.927
"1368","date","laugh",8,2,4,4.409,4,0.1,1,0,0,1.751,"skip",0,NA,2.389
"1368","shrink","mafia",9,2,50,3.575,37,0.925,0,0,1,0.629,"",NA,NA,NA
"1368","banner","glide",10,2,11,3.455,20,0.5,0,1,0,0.769,"",NA,NA,NA
"1368","glue","force",11,2,6,3.13,7,0.175,1,0,0,0.662,"skip",0,NA,1.826
"1368","biology","temper",12,2,49,3.458,35,0.875,0,0,1,0.656,"",NA,NA,NA
"1368","mill","feast",13,2,10,2.188,17,0.425,0,1,0,0.609,"",NA,NA,NA
"1368","risk","zero",14,2,50,5.268,36,0.9,0,0,1,1.059,"",NA,NA,NA
"1368","link","crisis",15,2,4,3.02,3,0.075,1,0,0,0.867,"skip",0,NA,1.969
"1368","chicken","beet",16,2,14,3.513,23,0.575,1,1,1,1,"beet",1,NA,2.114
"1368","collect","loyalty",17,2,3,2.64,2,0.05,1,0,0,2.497,"skip",0,NA,2.347
"1368","anger","decay",18,2,13,4.023,21,0.525,1,1,1,0.69,"skip",0,NA,2.886
"1368","smother","surgery",19,2,28,2.831,33,0.825,0,0,1,2.078,"",NA,NA,NA
"1368","calf","annoy",20,2,26,8.035,32,0.8,0,0,1,0.97,"",NA,NA,NA
"1368","rock","milk",21,2,7,3.951,11,0.275,1,0,0,2.03,"milk",1,NA,2.833
"1368","bacon","feud",22,2,8,4.883,15,0.375,1,1,1,0.853,"skip",0,NA,4.511
"1368","fan","feature",23,2,14,6.111,22,0.55,0,1,0,5.448,"",NA,NA,NA
"1368","port","cinema",24,2,14,3.677,24,0.6,1,1,1,0.996,"cinema",1,NA,1.991
"1368","find","clown",25,2,19,3.168,31,0.775,0,1,0,0.79,"",NA,NA,NA
"1368","replace","roach",26,2,6,2.437,9,0.225,1,0,0,1.975,"skip",0,NA,3.506
"1368","grip","beach",27,2,10,3.986,18,0.45,0,1,0,1.193,"",NA,NA,NA
"1368","bullet","walkway",28,2,5,5.384,6,0.15,1,1,1,2.145,"walkway",1,NA,2.646
"1368","pork","emperor",29,2,15,8.443,26,0.65,1,1,1,8.313,"emperor",1,NA,2.726
"1368","remind","foam",30,2,18,2.974,29,0.725,0,1,0,0.723,"",NA,NA,NA
"1368","bias","sirloin",31,2,14,5.404,25,0.625,0,1,0,0.808,"",NA,NA,NA
"1368","copy","bedroom",32,2,3,4.595,1,0.025,1,0,0,0.936,"skip",0,NA,3.806
"1368","want","ascent",33,2,6,3.247,10,0.25,1,0,0,2.24,"skip",0,NA,1.589
"1368","bleach","ruin",34,2,79,4.198,39,0.975,0,0,1,1.52,"",NA,NA,NA
"1368","process","joker",35,2,8,2.781,13,0.325,1,1,1,0.67,"skip",0,NA,1.781
"1368","caring","skirt",36,2,10,4.038,19,0.475,1,1,1,1.251,"skip",0,NA,1.677
"1368","visit","glove",37,2,5,2.879,5,0.125,1,0,0,1.117,"skip",0,NA,1.416
"1368","forest","knob",38,2,8,3.806,12,0.3,0,1,0,0.783,"",NA,NA,NA
"1368","climax","saucer",39,2,8,2.665,14,0.35,0,1,0,1.344,"",NA,NA,NA
"1368","fee","chowder",40,2,6,2.123,8,0.2,1,0,0,1.394,"skip",0,NA,2.133
"1368","grip","beach",1,3,10,3.986,18,0.45,0,1,0,1.193,"",NA,NA,NA
"1368","pork","emperor",2,3,15,8.443,26,0.65,1,1,1,8.313,"emperor",1,NA,4.085
"1368","replace","roach",3,3,6,2.437,9,0.225,1,0,0,1.975,"skip",0,NA,2.166
"1368","chicken","beet",4,3,14,3.513,23,0.575,1,1,1,1,"beet",1,NA,4.497
"1368","visit","glove",5,3,5,2.879,5,0.125,1,0,0,1.117,"skip",0,NA,1.895
"1368","plant","worm",6,3,19,5.895,30,0.75,0,0,1,0.725,"",NA,NA,NA
"1368","shrink","mafia",7,3,50,3.575,37,0.925,0,0,1,0.629,"",NA,NA,NA
"1368","link","crisis",8,3,4,3.02,3,0.075,1,0,0,0.867,"skip",0,NA,1.265
"1368","caring","skirt",9,3,10,4.038,19,0.475,1,1,1,1.251,"skip",0,NA,2.349
"1368","bullet","walkway",10,3,5,5.384,6,0.15,1,1,1,2.145,"walkway",1,NA,2.951
"1368","glue","force",11,3,6,3.13,7,0.175,1,0,0,0.662,"skip",0,NA,1.529
"1368","rock","milk",12,3,7,3.951,11,0.275,1,0,0,2.03,"milk",1,NA,2.436
"1368","fan","feature",13,3,14,6.111,22,0.55,0,1,0,5.448,"",NA,NA,NA
"1368","capital","figure",14,3,15,2.112,27,0.675,1,1,1,0.867,"skip",0,NA,1.368
"1368","nerve","bumper",15,3,16,4.401,28,0.7,0,1,0,1.134,"",NA,NA,NA
"1368","banner","glide",16,3,11,3.455,20,0.5,0,1,0,0.769,"",NA,NA,NA
"1368","remind","foam",17,3,18,2.974,29,0.725,0,1,0,0.723,"",NA,NA,NA
"1368","fee","chowder",18,3,6,2.123,8,0.2,1,0,0,1.394,"skip",0,NA,1.359
"1368","calf","annoy",19,3,26,8.035,32,0.8,0,0,1,0.97,"",NA,NA,NA
"1368","collect","loyalty",20,3,3,2.64,2,0.05,1,0,0,2.497,"skip",0,NA,5.16
"1368","want","ascent",21,3,6,3.247,10,0.25,1,0,0,2.24,"skip",0,NA,1.184
"1368","date","laugh",22,3,4,4.409,4,0.1,1,0,0,1.751,"skip",0,NA,4.072
"1368","process","joker",23,3,8,2.781,13,0.325,1,1,1,0.67,"skip",0,NA,1.479
"1368","biology","temper",24,3,49,3.458,35,0.875,0,0,1,0.656,"",NA,NA,NA
"1368","smother","surgery",25,3,28,2.831,33,0.825,0,0,1,2.078,"",NA,NA,NA
"1368","bacon","feud",26,3,8,4.883,15,0.375,1,1,1,0.853,"skip",0,NA,4.099
"1368","need","faucet",27,3,9,2.478,16,0.4,1,1,1,2.86,"skip",0,NA,1.37
"1368","knock","otter",28,3,80,3.817,40,1,0,0,1,1.213,"",NA,NA,NA
"1368","risk","zero",29,3,50,5.268,36,0.9,0,0,1,1.059,"",NA,NA,NA
"1368","bleach","ruin",30,3,79,4.198,39,0.975,0,0,1,1.52,"",NA,NA,NA
"1368","mill","feast",31,3,10,2.188,17,0.425,0,1,0,0.609,"",NA,NA,NA
"1368","anger","decay",32,3,13,4.023,21,0.525,1,1,1,0.69,"skip",0,NA,4.789
"1368","pea","bathtub",33,3,70,2.518,38,0.95,0,0,1,1.193,"",NA,NA,NA
"1368","prison","loaf",34,3,44,3.449,34,0.85,0,0,1,1.012,"",NA,NA,NA
"1368","copy","bedroom",35,3,3,4.595,1,0.025,1,0,0,0.936,"skip",0,NA,2.021
"1368","forest","knob",36,3,8,3.806,12,0.3,0,1,0,0.783,"",NA,NA,NA
"1368","port","cinema",37,3,14,3.677,24,0.6,1,1,1,0.996,"cinema",1,NA,3.688
"1368","climax","saucer",38,3,8,2.665,14,0.35,0,1,0,1.344,"",NA,NA,NA
"1368","bias","sirloin",39,3,14,5.404,25,0.625,0,1,0,0.808,"",NA,NA,NA
"1368","find","clown",40,3,19,3.168,31,0.775,0,1,0,0.79,"",NA,NA,NA
"1467","fan","feature",1,1,21,2.063,30,0.75,1,1,1,0.759,"feature",1,NA,17.398
"1467","bias","sirloin",2,1,4,4.759,7,0.175,0,1,0,1.336,"",NA,NA,NA
"1467","collect","loyalty",3,1,25,1.393,31,0.775,1,1,1,0.887,"bison",0,NA,21.746
"1467","remind","foam",4,1,9,7.767,15,0.375,0,0,1,0.847,"",NA,NA,NA
"1467","anger","decay",5,1,2,4.184,4,0.1,0,1,0,0.736,"",NA,NA,NA
"1467","climax","saucer",6,1,10,4.415,17,0.425,0,0,1,1.664,"",NA,NA,NA
"1467","visit","glove",7,1,8,2.568,12,0.3,0,1,0,0.976,"",NA,NA,NA
"1467","port","cinema",8,1,18,11.599,28,0.7,1,0,0,1.392,"cinema",1,NA,23.769
"1467","capital","figure",9,1,77,8.424,35,0.875,1,1,1,1.128,"figure",1,NA,4.488
"1467","glue","force",10,1,15,1.991,26,0.65,1,0,0,0.864,"fern",0,NA,37.144
"1467","calf","annoy",11,1,12,12.352,19,0.475,1,0,0,0.607,"legacy",0,NA,24.711
"1467","caring","skirt",12,1,5,1.743,8,0.2,0,1,0,0.791,"",NA,NA,NA
"1467","want","ascent",13,1,1,1.647,3,0.075,0,0,1,0.808,"",NA,NA,NA
"1467","knock","otter",14,1,30,3.608,33,0.825,1,1,1,0.872,"after",0,NA,20.956
"1467","nerve","bumper",15,1,15,2.176,24,0.6,1,0,0,0.592,"bumper",1,NA,16.311
"1467","replace","roach",16,1,3,4.168,6,0.15,0,0,1,1.145,"",NA,NA,NA
"1467","rock","milk",17,1,28,1.368,32,0.8,1,1,1,0.856,"skirt",0,NA,34.439
"1467","mill","feast",18,1,11,2.56,18,0.45,1,0,0,0.743,"dig",0,NA,20.599
"1467","need","faucet",19,1,3,1.855,5,0.125,0,1,0,0.928,"",NA,NA,NA
"1467","chicken","beet",20,1,100,3.456,40,1,1,1,1,0.936,"beet",1,NA,11.637
"1467","bleach","ruin",21,1,20,25.087,29,0.725,0,0,1,1.247,"",NA,NA,NA
"1467","copy","bedroom",22,1,38,6.104,34,0.85,1,0,0,1.304,"paste",0,NA,27.998
"1467","grip","beach",23,1,12,2.368,20,0.5,1,0,0,0.56,"beach",1,NA,12.08
"1467","smother","surgery",24,1,10,6.263,16,0.4,0,1,0,0.88,"",NA,NA,NA
"1467","pea","bathtub",25,1,78,21.287,36,0.9,1,1,1,1.607,"bathtub",1,NA,14.765
"1467","bacon","feud",26,1,79,16.688,37,0.925,1,1,1,1.175,"feud",1,NA,9.226
"1467","prison","loaf",27,1,15,2.127,25,0.625,1,0,0,0.735,"loaf",1,NA,71.734
"1467","banner","glide",28,1,8,2.903,13,0.325,0,1,0,0.832,"",NA,NA,NA
"1467","plant","worm",29,1,6,3.743,11,0.275,0,0,1,2.184,"",NA,NA,NA
"1467","shrink","mafia",30,1,13,2.407,21,0.525,0,0,1,0.703,"",NA,NA,NA
"1467","pork","emperor",31,1,90,5.328,38,0.95,1,1,1,4.248,"emporer",0,NA,8.042
"1467","risk","zero",32,1,15,4.016,23,0.575,1,0,0,1.136,"crisis",0,NA,26.048
"1467","forest","knob",33,1,14,11.679,22,0.55,1,0,0,0.975,"tree",0,NA,9.559
"1467","bullet","walkway",34,1,6,2.135,10,0.25,0,0,1,1.207,"",NA,NA,NA
"1467","find","clown",35,1,17,2.687,27,0.675,0,0,1,1.008,"",NA,NA,NA
"1467","process","joker",36,1,6,5.983,9,0.225,0,0,1,1.159,"",NA,NA,NA
"1467","link","crisis",37,1,93,3.959,39,0.975,1,1,1,0.944,"crisis",1,NA,40.979
"1467","fee","chowder",38,1,1,3.975,2,0.05,0,1,0,1.279,"",NA,NA,NA
"1467","biology","temper",39,1,1,15.926,1,0.025,0,1,0,11.007,"",NA,NA,NA
"1467","date","laugh",40,1,8,4.519,14,0.35,0,1,0,1.08,"",NA,NA,NA
"1467","want","ascent",1,2,1,1.647,3,0.075,0,0,1,0.808,"",NA,NA,NA
"1467","nerve","bumper",2,2,15,2.176,24,0.6,1,0,0,0.592,"forest",0,NA,28.844
"1467","knock","otter",3,2,30,3.608,33,0.825,1,1,1,0.872,"ascent",0,NA,14.056
"1467","remind","foam",4,2,9,7.767,15,0.375,0,0,1,0.847,"",NA,NA,NA
"1467","find","clown",5,2,17,2.687,27,0.675,0,0,1,1.008,"",NA,NA,NA
"1467","fee","chowder",6,2,1,3.975,2,0.05,0,1,0,1.279,"",NA,NA,NA
"1467","banner","glide",7,2,8,2.903,13,0.325,0,1,0,0.832,"",NA,NA,NA
"1467","replace","roach",8,2,3,4.168,6,0.15,0,0,1,1.145,"",NA,NA,NA
"1467","forest","knob",9,2,14,11.679,22,0.55,1,0,0,0.975,"tree",0,NA,9.795
"1467","need","faucet",10,2,3,1.855,5,0.125,0,1,0,0.928,"",NA,NA,NA
"1467","bacon","feud",11,2,79,16.688,37,0.925,1,1,1,1.175,"feud",1,NA,5.03
"1467","glue","force",12,2,15,1.991,26,0.65,1,0,0,0.864,"chowder",0,NA,27.663
"1467","pea","bathtub",13,2,78,21.287,36,0.9,1,1,1,1.607,"bathtub",1,NA,6.223
"1467","bleach","ruin",14,2,20,25.087,29,0.725,0,0,1,1.247,"",NA,NA,NA
"1467","port","cinema",15,2,18,11.599,28,0.7,1,0,0,1.392,"cinema",1,NA,18.23
"1467","biology","temper",16,2,1,15.926,1,0.025,0,1,0,11.007,"",NA,NA,NA
"1467","smother","surgery",17,2,10,6.263,16,0.4,0,1,0,0.88,"",NA,NA,NA
"1467","fan","feature",18,2,21,2.063,30,0.75,1,1,1,0.759,"feature",1,NA,7.964
"1467","bullet","walkway",19,2,6,2.135,10,0.25,0,0,1,1.207,"",NA,NA,NA
"1467","shrink","mafia",20,2,13,2.407,21,0.525,0,0,1,0.703,"",NA,NA,NA
"1467","link","crisis",21,2,93,3.959,39,0.975,1,1,1,0.944,"crisis",1,NA,9.54
"1467","capital","figure",22,2,77,8.424,35,0.875,1,1,1,1.128,"figure",1,NA,5.519
"1467","calf","annoy",23,2,12,12.352,19,0.475,1,0,0,0.607,"any",0,NA,10.079
"1467","pork","emperor",24,2,90,5.328,38,0.95,1,1,1,4.248,"emporer",0,NA,7.192
"1467","process","joker",25,2,6,5.983,9,0.225,0,0,1,1.159,"",NA,NA,NA
"1467","anger","decay",26,2,2,4.184,4,0.1,0,1,0,0.736,"",NA,NA,NA
"1467","prison","loaf",27,2,15,2.127,25,0.625,1,0,0,0.735,"loaf",1,NA,23.412
"1467","climax","saucer",28,2,10,4.415,17,0.425,0,0,1,1.664,"",NA,NA,NA
"1467","risk","zero",29,2,15,4.016,23,0.575,1,0,0,1.136,"taker",0,NA,19.83
"1467","visit","glove",30,2,8,2.568,12,0.3,0,1,0,0.976,"",NA,NA,NA
"1467","rock","milk",31,2,28,1.368,32,0.8,1,1,1,0.856,"foam",0,NA,29.389
"1467","bias","sirloin",32,2,4,4.759,7,0.175,0,1,0,1.336,"",NA,NA,NA
"1467","date","laugh",33,2,8,4.519,14,0.35,0,1,0,1.08,"",NA,NA,NA
"1467","chicken","beet",34,2,100,3.456,40,1,1,1,1,0.936,"beet",1,NA,4.197
"1467","mill","feast",35,2,11,2.56,18,0.45,1,0,0,0.743,"fan",0,NA,17.495
"1467","plant","worm",36,2,6,3.743,11,0.275,0,0,1,2.184,"",NA,NA,NA
"1467","collect","loyalty",37,2,25,1.393,31,0.775,1,1,1,0.887,"temper",0,NA,9.455
"1467","caring","skirt",38,2,5,1.743,8,0.2,0,1,0,0.791,"",NA,NA,NA
"1467","grip","beach",39,2,12,2.368,20,0.5,1,0,0,0.56,"decay",0,NA,9.343
"1467","copy","bedroom",40,2,38,6.104,34,0.85,1,0,0,1.304,"sauce",0,NA,22.969
"1467","need","faucet",1,3,3,1.855,5,0.125,0,1,0,0.928,"",NA,NA,NA
"1467","caring","skirt",2,3,5,1.743,8,0.2,0,1,0,0.791,"",NA,NA,NA
"1467","remind","foam",3,3,9,7.767,15,0.375,0,0,1,0.847,"",NA,NA,NA
"1467","forest","knob",4,3,14,11.679,22,0.55,1,0,0,0.975,"tree",0,NA,5.393
"1467","bullet","walkway",5,3,6,2.135,10,0.25,0,0,1,1.207,"",NA,NA,NA
"1467","grip","beach",6,3,12,2.368,20,0.5,1,0,0,0.56,"beach",1,NA,4.86
"1467","pea","bathtub",7,3,78,21.287,36,0.9,1,1,1,1.607,"bathtub",1,NA,7.583
"1467","fan","feature",8,3,21,2.063,30,0.75,1,1,1,0.759,"feature",1,NA,6.544
"1467","visit","glove",9,3,8,2.568,12,0.3,0,1,0,0.976,"",NA,NA,NA
"1467","fee","chowder",10,3,1,3.975,2,0.05,0,1,0,1.279,"",NA,NA,NA
"1467","anger","decay",11,3,2,4.184,4,0.1,0,1,0,0.736,"",NA,NA,NA
"1467","bleach","ruin",12,3,20,25.087,29,0.725,0,0,1,1.247,"",NA,NA,NA
"1467","biology","temper",13,3,1,15.926,1,0.025,0,1,0,11.007,"",NA,NA,NA
"1467","climax","saucer",14,3,10,4.415,17,0.425,0,0,1,1.664,"",NA,NA,NA
"1467","glue","force",15,3,15,1.991,26,0.65,1,0,0,0.864,"sauce",0,NA,16.213
"1467","capital","figure",16,3,77,8.424,35,0.875,1,1,1,1.128,"figure",1,NA,5.439
"1467","date","laugh",17,3,8,4.519,14,0.35,0,1,0,1.08,"",NA,NA,NA
"1467","calf","annoy",18,3,12,12.352,19,0.475,1,0,0,0.607,"any",0,NA,18.709
"1467","prison","loaf",19,3,15,2.127,25,0.625,1,0,0,0.735,"day",0,NA,14.671
"1467","port","cinema",20,3,18,11.599,28,0.7,1,0,0,1.392,"cinema",1,NA,22.776
"1467","find","clown",21,3,17,2.687,27,0.675,0,0,1,1.008,"",NA,NA,NA
"1467","bacon","feud",22,3,79,16.688,37,0.925,1,1,1,1.175,"feud",1,NA,27.087
"1467","replace","roach",23,3,3,4.168,6,0.15,0,0,1,1.145,"",NA,NA,NA
"1467","plant","worm",24,3,6,3.743,11,0.275,0,0,1,2.184,"",NA,NA,NA
"1467","knock","otter",25,3,30,3.608,33,0.825,1,1,1,0.872,"dry",0,NA,39.105
"1467","link","crisis",26,3,93,3.959,39,0.975,1,1,1,0.944,"crisis",1,NA,172.644
"1467","rock","milk",27,3,28,1.368,32,0.8,1,1,1,0.856,"skirt",0,NA,40.475
"1467","risk","zero",28,3,15,4.016,23,0.575,1,0,0,1.136,"clown",0,NA,18.264
"1467","nerve","bumper",29,3,15,2.176,24,0.6,1,0,0,0.592,"bumper",1,NA,18.071
"1467","chicken","beet",30,3,100,3.456,40,1,1,1,1,0.936,"beet",1,NA,31.711
"1467","pork","emperor",31,3,90,5.328,38,0.95,1,1,1,4.248,"emporer",0,NA,7.656
"1467","want","ascent",32,3,1,1.647,3,0.075,0,0,1,0.808,"",NA,NA,NA
"1467","mill","feast",33,3,11,2.56,18,0.45,1,0,0,0.743,"roach",0,NA,19.412
"1467","collect","loyalty",34,3,25,1.393,31,0.775,1,1,1,0.887,"day",0,NA,20.991
"1467","shrink","mafia",35,3,13,2.407,21,0.525,0,0,1,0.703,"",NA,NA,NA
"1467","process","joker",36,3,6,5.983,9,0.225,0,0,1,1.159,"",NA,NA,NA
"1467","smother","surgery",37,3,10,6.263,16,0.4,0,1,0,0.88,"",NA,NA,NA
"1467","bias","sirloin",38,3,4,4.759,7,0.175,0,1,0,1.336,"",NA,NA,NA
"1467","copy","bedroom",39,3,38,6.104,34,0.85,1,0,0,1.304,"roach",0,NA,238.904
"1467","banner","glide",40,3,8,2.903,13,0.325,0,1,0,0.832,"",NA,NA,NA
"1554","bleach","ruin",1,1,5,1.148,26,0.65,1,0,0,0.507,"job",0,NA,6.368
"1554","find","clown",2,1,1,1.139,15,0.375,1,1,1,0.601,"test",0,NA,2.382
"1554","biology","temper",3,1,28,3.386,38,0.95,0,1,0,3.007,"",NA,NA,NA
"1554","replace","roach",4,1,15,1.547,31,0.775,0,1,0,0.507,"",NA,NA,NA
"1554","capital","figure",5,1,13,5.563,27,0.675,0,0,1,6.876,"",NA,NA,NA
"1554","forest","knob",6,1,1,1.039,17,0.425,0,0,1,0.561,"",NA,NA,NA
"1554","fee","chowder",7,1,23,1.086,36,0.9,0,1,0,0.446,"",NA,NA,NA
"1554","port","cinema",8,1,24,1.881,37,0.925,0,1,0,0.571,"",NA,NA,NA
"1554","grip","beach",9,1,1,1.078,11,0.275,1,1,1,0.663,"cinema",0,NA,3.51
"1554","mill","feast",10,1,1,1.11,7,0.175,1,1,1,0.835,"rest",0,NA,2.959
"1554","want","ascent",11,1,1,1.163,21,0.525,0,0,1,0.757,"",NA,NA,NA
"1554","pork","emperor",12,1,4,1.193,25,0.625,1,0,0,0.523,"beach",0,NA,2.601
"1554","climax","saucer",13,1,14,1.491,30,0.75,0,0,1,0.656,"",NA,NA,NA
"1554","shrink","mafia",14,1,1,1.283,10,0.25,1,1,1,0.763,"saucer",0,NA,2.101
"1554","prison","loaf",15,1,3,1.342,24,0.6,0,0,1,0.626,"",NA,NA,NA
"1554","collect","loyalty",16,1,16,3.778,32,0.8,0,1,0,1.875,"",NA,NA,NA
"1554","pea","bathtub",17,1,22,2.086,35,0.875,0,1,0,0.601,"",NA,NA,NA
"1554","caring","skirt",18,1,1,1.264,1,0.025,1,0,0,0.719,"loyalty",0,NA,2.98
"1554","chicken","beet",19,1,1,1.203,18,0.45,0,0,1,0.693,"",NA,NA,NA
"1554","bullet","walkway",20,1,19,1.092,34,0.85,0,1,0,0.467,"",NA,NA,NA
"1554","fan","feature",21,1,1,1.228,3,0.075,1,0,0,0.537,"fear",0,NA,4.669
"1554","link","crisis",22,1,1,1.967,13,0.325,1,1,1,0.649,"list",0,NA,1.87
"1554","bacon","feud",23,1,1,1.615,12,0.3,1,1,1,0.719,"beach",0,NA,1.488
"1554","nerve","bumper",24,1,28,1.172,39,0.975,0,1,0,0.717,"",NA,NA,NA
"1554","bias","sirloin",25,1,1,1.21,2,0.05,1,0,0,0.648,"pork",0,NA,12.998
"1554","risk","zero",26,1,13,1.789,29,0.725,1,0,0,0.664,"crown",0,NA,4.127
"1554","banner","glide",27,1,1,1.593,5,0.125,1,0,0,0.546,"king",0,NA,1.632
"1554","process","joker",28,1,1,1.717,9,0.225,1,1,1,2.615,"pea",0,NA,6.208
"1554","date","laugh",29,1,1,1.459,6,0.15,1,1,1,0.655,"bed",0,NA,2.415
"1554","remind","foam",30,1,1,1.329,19,0.475,0,0,1,0.616,"",NA,NA,NA
"1554","smother","surgery",31,1,1,1.289,4,0.1,1,0,0,0.529,"pork",0,NA,9.735
"1554","rock","milk",32,1,1,1.147,22,0.55,0,0,1,0.523,"",NA,NA,NA
"1554","copy","bedroom",33,1,1,2.038,8,0.2,1,1,1,0.83,"bread",0,NA,3.031
"1554","need","faucet",34,1,1,1.007,16,0.4,0,0,1,0.685,"",NA,NA,NA
"1554","calf","annoy",35,1,13,0.953,28,0.7,1,0,0,0.514,"milk",0,NA,3.35
"1554","anger","decay",36,1,2,1.061,23,0.575,1,0,0,0.736,"rip",0,NA,5.136
"1554","glue","force",37,1,1,2.139,20,0.5,0,0,1,1.367,"",NA,NA,NA
"1554","visit","glove",38,1,34,3.077,40,1,0,1,0,0.664,"",NA,NA,NA
"1554","knock","otter",39,1,18,1.008,33,0.825,0,1,0,0.498,"",NA,NA,NA
"1554","plant","worm",40,1,1,1.249,14,0.35,1,1,1,0.655,"seed",0,NA,40.438
"1554","rock","milk",1,2,1,1.147,22,0.55,0,0,1,0.523,"",NA,NA,NA
"1554","biology","temper",2,2,28,3.386,38,0.95,0,1,0,3.007,"",NA,NA,NA
"1554","prison","loaf",3,2,3,1.342,24,0.6,0,0,1,0.626,"",NA,NA,NA
"1554","forest","knob",4,2,1,1.039,17,0.425,0,0,1,0.561,"",NA,NA,NA
"1554","process","joker",5,2,1,1.717,9,0.225,1,1,1,2.615,"kind",0,NA,2.698
"1554","fan","feature",6,2,1,1.228,3,0.075,1,0,0,0.537,"bird",0,NA,2.431
"1554","remind","foam",7,2,1,1.329,19,0.475,0,0,1,0.616,"",NA,NA,NA
"1554","smother","surgery",8,2,1,1.289,4,0.1,1,0,0,0.529,"jest",0,NA,2.567
"1554","visit","glove",9,2,34,3.077,40,1,0,1,0,0.664,"",NA,NA,NA
"1554","grip","beach",10,2,1,1.078,11,0.275,1,1,1,0.663,"glove",0,NA,3.318
"1554","shrink","mafia",11,2,1,1.283,10,0.25,1,1,1,0.763,"head",0,NA,2.255
"1554","date","laugh",12,2,1,1.459,6,0.15,1,1,1,0.655,"red",0,NA,1.727
"1554","copy","bedroom",13,2,1,2.038,8,0.2,1,1,1,0.83,"mead",0,NA,1.936
"1554","bias","sirloin",14,2,1,1.21,2,0.05,1,0,0,0.648,"lip",0,NA,2.416
"1554","nerve","bumper",15,2,28,1.172,39,0.975,0,1,0,0.717,"",NA,NA,NA
"1554","plant","worm",16,2,1,1.249,14,0.35,1,1,1,0.655,"pot",0,NA,3.204
"1554","fee","chowder",17,2,23,1.086,36,0.9,0,1,0,0.446,"",NA,NA,NA
"1554","bullet","walkway",18,2,19,1.092,34,0.85,0,1,0,0.467,"",NA,NA,NA
"1554","want","ascent",19,2,1,1.163,21,0.525,0,0,1,0.757,"",NA,NA,NA
"1554","find","clown",20,2,1,1.139,15,0.375,1,1,1,0.601,"course",0,NA,12.82
"1554","capital","figure",21,2,13,5.563,27,0.675,0,0,1,6.876,"",NA,NA,NA
"1554","collect","loyalty",22,2,16,3.778,32,0.8,0,1,0,1.875,"",NA,NA,NA
"1554","link","crisis",23,2,1,1.967,13,0.325,1,1,1,0.649,"kill",0,NA,4.3
"1554","pork","emperor",24,2,4,1.193,25,0.625,1,0,0,0.523,"desk",0,NA,1.984
"1554","port","cinema",25,2,24,1.881,37,0.925,0,1,0,0.571,"",NA,NA,NA
"1554","bacon","feud",26,2,1,1.615,12,0.3,1,1,1,0.719,"meat",0,NA,3.814
"1554","knock","otter",27,2,18,1.008,33,0.825,0,1,0,0.498,"",NA,NA,NA
"1554","replace","roach",28,2,15,1.547,31,0.775,0,1,0,0.507,"",NA,NA,NA
"1554","calf","annoy",29,2,13,0.953,28,0.7,1,0,0,0.514,"milk",0,NA,11.531
"1554","risk","zero",30,2,13,1.789,29,0.725,1,0,0,0.664,"folk",0,NA,4.735
"1554","mill","feast",31,2,1,1.11,7,0.175,1,1,1,0.835,"jeans",0,NA,4.191
"1554","anger","decay",32,2,2,1.061,23,0.575,1,0,0,0.736,"lip",0,NA,2.08
"1554","pea","bathtub",33,2,22,2.086,35,0.875,0,1,0,0.601,"",NA,NA,NA
"1554","glue","force",34,2,1,2.139,20,0.5,0,0,1,1.367,"",NA,NA,NA
"1554","bleach","ruin",35,2,5,1.148,26,0.65,1,0,0,0.507,"round",0,NA,16.38
"1554","caring","skirt",36,2,1,1.264,1,0.025,1,0,0,0.719,"ball",0,NA,1.584
"1554","climax","saucer",37,2,14,1.491,30,0.75,0,0,1,0.656,"",NA,NA,NA
"1554","banner","glide",38,2,1,1.593,5,0.125,1,0,0,0.546,"suck",0,NA,4.069
"1554","chicken","beet",39,2,1,1.203,18,0.45,0,0,1,0.693,"",NA,NA,NA
"1554","need","faucet",40,2,1,1.007,16,0.4,0,0,1,0.685,"",NA,NA,NA
"1554","chicken","beet",1,3,1,1.203,18,0.45,0,0,1,0.693,"",NA,NA,NA
"1554","climax","saucer",2,3,14,1.491,30,0.75,0,0,1,0.656,"",NA,NA,NA
"1554","link","crisis",3,3,1,1.967,13,0.325,1,1,1,0.649,"facuet",0,NA,8.782
"1554","shrink","mafia",4,3,1,1.283,10,0.25,1,1,1,0.763,"chicken",0,NA,3.328
"1554","caring","skirt",5,3,1,1.264,1,0.025,1,0,0,0.719,"beet",0,NA,1.488
"1554","banner","glide",6,3,1,1.593,5,0.125,1,0,0,0.546,"lead",0,NA,2.528
"1554","grip","beach",7,3,1,1.078,11,0.275,1,1,1,0.663,"why",0,NA,1.903
"1554","collect","loyalty",8,3,16,3.778,32,0.8,0,1,0,1.875,"",NA,NA,NA
"1554","pork","emperor",9,3,4,1.193,25,0.625,1,0,0,0.523,"faucet",0,NA,11.366
"1554","forest","knob",10,3,1,1.039,17,0.425,0,0,1,0.561,"",NA,NA,NA
"1554","bacon","feud",11,3,1,1.615,12,0.3,1,1,1,0.719,"milk",0,NA,13.16
"1554","anger","decay",12,3,2,1.061,23,0.575,1,0,0,0.736,"calf",0,NA,1.888
"1554","bleach","ruin",13,3,5,1.148,26,0.65,1,0,0,0.507,"shore",0,NA,2.542
"1554","fee","chowder",14,3,23,1.086,36,0.9,0,1,0,0.446,"",NA,NA,NA
"1554","glue","force",15,3,1,2.139,20,0.5,0,0,1,1.367,"",NA,NA,NA
"1554","smother","surgery",16,3,1,1.289,4,0.1,1,0,0,0.529,"beat",0,NA,6.684
"1554","plant","worm",17,3,1,1.249,14,0.35,1,1,1,0.655,"list",0,NA,1.615
"1554","date","laugh",18,3,1,1.459,6,0.15,1,1,1,0.655,"pot",0,NA,2.72
"1554","process","joker",19,3,1,1.717,9,0.225,1,1,1,2.615,"plant",0,NA,2.383
"1554","pea","bathtub",20,3,22,2.086,35,0.875,0,1,0,0.601,"",NA,NA,NA
"1554","risk","zero",21,3,13,1.789,29,0.725,1,0,0,0.664,"table",0,NA,78.393
"1554","need","faucet",22,3,1,1.007,16,0.4,0,0,1,0.685,"",NA,NA,NA
"1554","visit","glove",23,3,34,3.077,40,1,0,1,0,0.664,"",NA,NA,NA
"1554","copy","bedroom",24,3,1,2.038,8,0.2,1,1,1,0.83,"visit",0,NA,3.837
"1554","nerve","bumper",25,3,28,1.172,39,0.975,0,1,0,0.717,"",NA,NA,NA
"1554","remind","foam",26,3,1,1.329,19,0.475,0,0,1,0.616,"",NA,NA,NA
"1554","port","cinema",27,3,24,1.881,37,0.925,0,1,0,0.571,"",NA,NA,NA
"1554","rock","milk",28,3,1,1.147,22,0.55,0,0,1,0.523,"",NA,NA,NA
"1554","replace","roach",29,3,15,1.547,31,0.775,0,1,0,0.507,"",NA,NA,NA
"1554","prison","loaf",30,3,3,1.342,24,0.6,0,0,1,0.626,"",NA,NA,NA
"1554","calf","annoy",31,3,13,0.953,28,0.7,1,0,0,0.514,"milk",0,NA,17.638
"1554","biology","temper",32,3,28,3.386,38,0.95,0,1,0,3.007,"",NA,NA,NA
"1554","bias","sirloin",33,3,1,1.21,2,0.05,1,0,0,0.648,"cap",0,NA,7.558
"1554","capital","figure",34,3,13,5.563,27,0.675,0,0,1,6.876,"",NA,NA,NA
"1554","mill","feast",35,3,1,1.11,7,0.175,1,1,1,0.835,"grain",0,NA,3.607
"1554","fan","feature",36,3,1,1.228,3,0.075,1,0,0,0.537,"blow",0,NA,2.335
"1554","bullet","walkway",37,3,19,1.092,34,0.85,0,1,0,0.467,"",NA,NA,NA
"1554","want","ascent",38,3,1,1.163,21,0.525,0,0,1,0.757,"",NA,NA,NA
"1554","find","clown",39,3,1,1.139,15,0.375,1,1,1,0.601,"replace",0,NA,2.462
"1554","knock","otter",40,3,18,1.008,33,0.825,0,1,0,0.498,"",NA,NA,NA
"1618","rock","milk",1,1,44,12.548,18,0.45,0,1,0,0.967,"",NA,NA,NA
"1618","bacon","feud",2,1,45,1.616,21,0.525,0,1,0,0.793,"",NA,NA,NA
"1618","link","crisis",3,1,50,5.979,35,0.875,0,0,1,1.988,"",NA,NA,NA
"1618","grip","beach",4,1,37,2.073,5,0.125,1,0,0,6.226,"beach",1,NA,70.035
"1618","risk","zero",5,1,32,1.661,1,0.025,1,0,0,1.056,"skip",0,NA,26.991
"1618","calf","annoy",6,1,46,2.571,23,0.575,1,1,1,1.189,"annoy",1,NA,16.571
"1618","collect","loyalty",7,1,58,2.972,39,0.975,0,0,1,1.467,"",NA,NA,NA
"1618","mill","feast",8,1,49,4.609,27,0.675,1,1,1,1.717,"feast",1,NA,19.25
"1618","chicken","beet",9,1,50,5.682,36,0.9,0,1,0,0.966,"",NA,NA,NA
"1618","anger","decay",10,1,42,1.949,14,0.35,0,1,0,1.043,"",NA,NA,NA
"1618","want","ascent",11,1,46,2.62,24,0.6,0,1,0,1.118,"",NA,NA,NA
"1618","port","cinema",12,1,42,2.057,15,0.375,0,1,0,0.827,"",NA,NA,NA
"1618","capital","figure",13,1,38,2.276,7,0.175,1,0,0,1.096,"figure",1,NA,13.818
"1618","remind","foam",14,1,50,4.006,34,0.85,0,0,1,1.304,"",NA,NA,NA
"1618","banner","glide",15,1,50,2.183,31,0.775,0,0,1,1.027,"",NA,NA,NA
"1618","find","clown",16,1,64,3.915,40,1,0,1,0,0.881,"",NA,NA,NA
"1618","forest","knob",17,1,35,1.673,3,0.075,1,0,0,0.831,"knob",1,NA,15.786
"1618","bullet","walkway",18,1,50,6.083,33,0.825,0,0,1,0.905,"",NA,NA,NA
"1618","bleach","ruin",19,1,38,1.357,8,0.2,1,0,0,0.777,"ruin",1,NA,19.467
"1618","knock","otter",20,1,41,5.723,12,0.3,1,1,1,0.957,"skip",0,NA,24.03
"1618","replace","roach",21,1,45,2.393,19,0.475,1,1,1,1.001,"skip",0,NA,4.172
"1618","need","faucet",22,1,47,1.99,25,0.625,1,1,1,0.813,"skip",0,NA,4.345
"1618","date","laugh",23,1,54,2.346,38,0.95,0,0,1,0.977,"",NA,NA,NA
"1618","pork","emperor",24,1,45,2.595,20,0.5,1,1,1,1.249,"skip",0,NA,6.798
"1618","copy","bedroom",25,1,34,12.208,2,0.05,1,1,1,79.026,"bedroom",1,NA,10.645
"1618","process","joker",26,1,38,2.19,6,0.15,1,0,0,0.925,"skip",0,NA,7.931
"1618","bias","sirloin",27,1,50,7.214,29,0.725,0,0,1,7.097,"",NA,NA,NA
"1618","fan","feature",28,1,42,2.017,13,0.325,0,1,0,1.121,"",NA,NA,NA
"1618","nerve","bumper",29,1,40,1.819,10,0.25,1,0,0,3.413,"skip",0,NA,3.32
"1618","climax","saucer",30,1,49,5.868,28,0.7,1,1,1,1.653,"skip",0,NA,3.161
"1618","shrink","mafia",31,1,44,3.973,17,0.425,0,1,0,1.537,"",NA,NA,NA
"1618","pea","bathtub",32,1,46,2.609,22,0.55,1,1,1,1.095,"skip",0,NA,3.741
"1618","biology","temper",33,1,44,2.011,16,0.4,1,1,1,1.399,"temper",1,NA,16.277
"1618","smother","surgery",34,1,50,7.463,30,0.75,0,0,1,1.233,"",NA,NA,NA
"1618","visit","glove",35,1,39,2.067,9,0.225,1,0,0,0.82,"skip",0,NA,3.559
"1618","glue","force",36,1,51,2.482,37,0.925,0,0,1,1.206,"",NA,NA,NA
"1618","plant","worm",37,1,36,1.453,4,0.1,1,0,0,0.817,"skip",0,NA,3.529
"1618","prison","loaf",38,1,50,3.005,32,0.8,0,0,1,0.988,"",NA,NA,NA
"1618","caring","skirt",39,1,47,2.516,26,0.65,0,1,0,0.768,"",NA,NA,NA
"1618","fee","chowder",40,1,40,2.035,11,0.275,1,0,0,10.013,"skip",0,NA,2.847
"1618","bleach","ruin",1,2,38,1.357,8,0.2,1,0,0,0.777,"ruin",1,NA,20.479
"1618","mill","feast",2,2,49,4.609,27,0.675,1,1,1,1.717,"feast",1,NA,21.419
"1618","anger","decay",3,2,42,1.949,14,0.35,0,1,0,1.043,"",NA,NA,NA
"1618","shrink","mafia",4,2,44,3.973,17,0.425,0,1,0,1.537,"",NA,NA,NA
"1618","caring","skirt",5,2,47,2.516,26,0.65,0,1,0,0.768,"",NA,NA,NA
"1618","capital","figure",6,2,38,2.276,7,0.175,1,0,0,1.096,"skip",0,NA,2.756
"1618","bacon","feud",7,2,45,1.616,21,0.525,0,1,0,0.793,"",NA,NA,NA
"1618","port","cinema",8,2,42,2.057,15,0.375,0,1,0,0.827,"",NA,NA,NA
"1618","link","crisis",9,2,50,5.979,35,0.875,0,0,1,1.988,"",NA,NA,NA
"1618","smother","surgery",10,2,50,7.463,30,0.75,0,0,1,1.233,"",NA,NA,NA
"1618","date","laugh",11,2,54,2.346,38,0.95,0,0,1,0.977,"",NA,NA,NA
"1618","remind","foam",12,2,50,4.006,34,0.85,0,0,1,1.304,"",NA,NA,NA
"1618","bullet","walkway",13,2,50,6.083,33,0.825,0,0,1,0.905,"",NA,NA,NA
"1618","find","clown",14,2,64,3.915,40,1,0,1,0,0.881,"",NA,NA,NA
"1618","risk","zero",15,2,32,1.661,1,0.025,1,0,0,1.056,"skip",0,NA,6.412
"1618","banner","glide",16,2,50,2.183,31,0.775,0,0,1,1.027,"",NA,NA,NA
"1618","visit","glove",17,2,39,2.067,9,0.225,1,0,0,0.82,"skip",0,NA,3.131
"1618","process","joker",18,2,38,2.19,6,0.15,1,0,0,0.925,"skip",0,NA,3.438
"1618","pea","bathtub",19,2,46,2.609,22,0.55,1,1,1,1.095,"skip",0,NA,2.943
"1618","calf","annoy",20,2,46,2.571,23,0.575,1,1,1,1.189,"skip",0,NA,3.34
"1618","knock","otter",21,2,41,5.723,12,0.3,1,1,1,0.957,"skip",0,NA,4.245
"1618","grip","beach",22,2,37,2.073,5,0.125,1,0,0,6.226,"skip",0,NA,3.902
"1618","prison","loaf",23,2,50,3.005,32,0.8,0,0,1,0.988,"",NA,NA,NA
"1618","nerve","bumper",24,2,40,1.819,10,0.25,1,0,0,3.413,"skip",0,NA,4.188
"1618","pork","emperor",25,2,45,2.595,20,0.5,1,1,1,1.249,"skip",0,NA,2.87
"1618","plant","worm",26,2,36,1.453,4,0.1,1,0,0,0.817,"skip",0,NA,2.761
"1618","biology","temper",27,2,44,2.011,16,0.4,1,1,1,1.399,"temper",1,NA,22.041
"1618","bias","sirloin",28,2,50,7.214,29,0.725,0,0,1,7.097,"",NA,NA,NA
"1618","chicken","beet",29,2,50,5.682,36,0.9,0,1,0,0.966,"",NA,NA,NA
"1618","fan","feature",30,2,42,2.017,13,0.325,0,1,0,1.121,"",NA,NA,NA
"1618","want","ascent",31,2,46,2.62,24,0.6,0,1,0,1.118,"",NA,NA,NA
"1618","fee","chowder",32,2,40,2.035,11,0.275,1,0,0,10.013,"skip",0,NA,3.564
"1618","glue","force",33,2,51,2.482,37,0.925,0,0,1,1.206,"",NA,NA,NA
"1618","rock","milk",34,2,44,12.548,18,0.45,0,1,0,0.967,"",NA,NA,NA
"1618","copy","bedroom",35,2,34,12.208,2,0.05,1,1,1,79.026,"bedroom",1,NA,14.097
"1618","climax","saucer",36,2,49,5.868,28,0.7,1,1,1,1.653,"skip",0,NA,2.73
"1618","replace","roach",37,2,45,2.393,19,0.475,1,1,1,1.001,"skip",0,NA,3.379
"1618","forest","knob",38,2,35,1.673,3,0.075,1,0,0,0.831,"knob",1,NA,14.392
"1618","collect","loyalty",39,2,58,2.972,39,0.975,0,0,1,1.467,"",NA,NA,NA
"1618","need","faucet",40,2,47,1.99,25,0.625,1,1,1,0.813,"skip",0,NA,4.424
"1618","bias","sirloin",1,3,50,7.214,29,0.725,0,0,1,7.097,"",NA,NA,NA
"1618","remind","foam",2,3,50,4.006,34,0.85,0,0,1,1.304,"",NA,NA,NA
"1618","bacon","feud",3,3,45,1.616,21,0.525,0,1,0,0.793,"",NA,NA,NA
"1618","want","ascent",4,3,46,2.62,24,0.6,0,1,0,1.118,"",NA,NA,NA
"1618","mill","feast",5,3,49,4.609,27,0.675,1,1,1,1.717,"feast",1,NA,19.341
"1618","caring","skirt",6,3,47,2.516,26,0.65,0,1,0,0.768,"",NA,NA,NA
"1618","collect","loyalty",7,3,58,2.972,39,0.975,0,0,1,1.467,"",NA,NA,NA
"1618","anger","decay",8,3,42,1.949,14,0.35,0,1,0,1.043,"",NA,NA,NA
"1618","climax","saucer",9,3,49,5.868,28,0.7,1,1,1,1.653,"skip",0,NA,7.49
"1618","capital","figure",10,3,38,2.276,7,0.175,1,0,0,1.096,"skip",0,NA,3.66
"1618","process","joker",11,3,38,2.19,6,0.15,1,0,0,0.925,"skip",0,NA,26.756
"1618","port","cinema",12,3,42,2.057,15,0.375,0,1,0,0.827,"",NA,NA,NA
"1618","grip","beach",13,3,37,2.073,5,0.125,1,0,0,6.226,"skip",0,NA,10.402
"1618","glue","force",14,3,51,2.482,37,0.925,0,0,1,1.206,"",NA,NA,NA
"1618","link","crisis",15,3,50,5.979,35,0.875,0,0,1,1.988,"",NA,NA,NA
"1618","rock","milk",16,3,44,12.548,18,0.45,0,1,0,0.967,"",NA,NA,NA
"1618","find","clown",17,3,64,3.915,40,1,0,1,0,0.881,"",NA,NA,NA
"1618","knock","otter",18,3,41,5.723,12,0.3,1,1,1,0.957,"skip",0,NA,27.885
"1618","forest","knob",19,3,35,1.673,3,0.075,1,0,0,0.831,"knob",1,NA,18.243
"1618","bullet","walkway",20,3,50,6.083,33,0.825,0,0,1,0.905,"",NA,NA,NA
"1618","fee","chowder",21,3,40,2.035,11,0.275,1,0,0,10.013,"skip",0,NA,5.002
"1618","nerve","bumper",22,3,40,1.819,10,0.25,1,0,0,3.413,"skip",0,NA,4.93
"1618","plant","worm",23,3,36,1.453,4,0.1,1,0,0,0.817,"skip",0,NA,3.077
"1618","pork","emperor",24,3,45,2.595,20,0.5,1,1,1,1.249,"skip",0,NA,3.587
"1618","risk","zero",25,3,32,1.661,1,0.025,1,0,0,1.056,"skip",0,NA,3.205
"1618","need","faucet",26,3,47,1.99,25,0.625,1,1,1,0.813,"skip",0,NA,4.827
"1618","banner","glide",27,3,50,2.183,31,0.775,0,0,1,1.027,"",NA,NA,NA
"1618","pea","bathtub",28,3,46,2.609,22,0.55,1,1,1,1.095,"skip",0,NA,6.842
"1618","date","laugh",29,3,54,2.346,38,0.95,0,0,1,0.977,"",NA,NA,NA
"1618","replace","roach",30,3,45,2.393,19,0.475,1,1,1,1.001,"skip",0,NA,6.242
"1618","chicken","beet",31,3,50,5.682,36,0.9,0,1,0,0.966,"",NA,NA,NA
"1618","bleach","ruin",32,3,38,1.357,8,0.2,1,0,0,0.777,"ruin",1,NA,13.553
"1618","biology","temper",33,3,44,2.011,16,0.4,1,1,1,1.399,"temper",1,NA,31.484
"1618","calf","annoy",34,3,46,2.571,23,0.575,1,1,1,1.189,"skip",0,NA,3.715
"1618","smother","surgery",35,3,50,7.463,30,0.75,0,0,1,1.233,"",NA,NA,NA
"1618","shrink","mafia",36,3,44,3.973,17,0.425,0,1,0,1.537,"",NA,NA,NA
"1618","copy","bedroom",37,3,34,12.208,2,0.05,1,1,1,79.026,"bedroom",1,NA,16.697
"1618","prison","loaf",38,3,50,3.005,32,0.8,0,0,1,0.988,"",NA,NA,NA
"1618","fan","feature",39,3,42,2.017,13,0.325,0,1,0,1.121,"",NA,NA,NA
"1618","visit","glove",40,3,39,2.067,9,0.225,1,0,0,0.82,"skip",0,NA,3.321
"1732","replace","roach",1,1,40,2.535,24,0.6,0,1,0,1.207,"",NA,NA,NA
"1732","bias","sirloin",2,1,22,4.228,4,0.1,1,0,0,1.048,"bleach",0,NA,8.854
"1732","fee","chowder",3,1,42,2.767,25,0.625,0,0,1,1.216,"",NA,NA,NA
"1732","anger","decay",4,1,65,3.151,38,0.95,0,0,1,1.055,"",NA,NA,NA
"1732","risk","zero",5,1,54,2.319,37,0.925,0,1,0,0.983,"",NA,NA,NA
"1732","link","crisis",6,1,33,2.391,8,0.2,1,1,1,0.975,"bias",0,NA,6.311
"1732","rock","milk",7,1,42,2.127,27,0.675,0,1,0,1.199,"",NA,NA,NA
"1732","mill","feast",8,1,10,4.316,1,0.025,1,0,0,1.223,"calf",0,NA,9.45
"1732","shrink","mafia",9,1,34,2.229,10,0.25,1,1,1,1.015,"rap",0,NA,5.608
"1732","copy","bedroom",10,1,46,3.173,30,0.75,0,0,1,1.223,"",NA,NA,NA
"1732","forest","knob",11,1,46,3.287,31,0.775,0,0,1,1.081,"",NA,NA,NA
"1732","chicken","beet",12,1,71,3.295,39,0.975,0,0,1,1.215,"",NA,NA,NA
"1732","port","cinema",13,1,38,2.839,17,0.425,1,1,1,1.087,"wine",0,NA,5.334
"1732","need","faucet",14,1,38,2.735,18,0.45,1,1,1,1.879,"fork",0,NA,9.247
"1732","nerve","bumper",15,1,44,2.679,29,0.725,0,0,1,1.367,"",NA,NA,NA
"1732","prison","loaf",16,1,100,3.51,40,1,0,0,1,1.335,"",NA,NA,NA
"1732","fan","feature",17,1,40,3.071,22,0.55,1,1,1,1.319,"walk",0,NA,18.543
"1732","pork","emperor",18,1,35,2.543,13,0.325,1,0,0,2.463,"mill",0,NA,5.919
"1732","biology","temper",19,1,27,2.637,5,0.125,1,0,0,0.967,"term",0,NA,5.895
"1732","bacon","feud",20,1,37,2.791,16,0.4,1,1,1,1.167,"wrap",0,NA,5.366
"1732","calf","annoy",21,1,18,3.479,2,0.05,1,0,0,0.967,"home",0,NA,5.751
"1732","pea","bathtub",22,1,21,3.599,3,0.075,1,0,0,1.391,"shock",0,NA,9.207
"1732","collect","loyalty",23,1,40,2.783,23,0.575,1,1,1,2.029,"term",0,NA,4.879
"1732","find","clown",24,1,34,2.327,11,0.275,1,0,0,1.022,"mill",0,NA,4.847
"1732","capital","figure",25,1,30,2.893,7,0.175,1,0,0,1.119,"check",0,NA,4.585
"1732","caring","skirt",26,1,50,4.175,35,0.875,0,1,0,0.959,"",NA,NA,NA
"1732","glue","force",27,1,47,4.015,33,0.825,0,1,0,1.014,"",NA,NA,NA
"1732","want","ascent",28,1,47,3.503,32,0.8,0,0,1,1.335,"",NA,NA,NA
"1732","grip","beach",29,1,39,3.471,21,0.525,1,1,1,1.215,"call",0,NA,6.614
"1732","bullet","walkway",30,1,52,4.636,36,0.9,0,1,0,12.511,"",NA,NA,NA
"1732","process","joker",31,1,42,2.423,26,0.65,0,0,1,0.976,"",NA,NA,NA
"1732","climax","saucer",32,1,44,2.943,28,0.7,0,0,1,1.103,"",NA,NA,NA
"1732","plant","worm",33,1,36,2.575,14,0.35,1,0,0,1.055,"mill",0,NA,9.23
"1732","banner","glide",34,1,48,2.238,34,0.85,0,1,0,0.959,"",NA,NA,NA
"1732","remind","foam",35,1,35,2.238,12,0.3,1,1,1,1.087,"call",0,NA,4.94
"1732","knock","otter",36,1,34,3.004,9,0.225,1,1,1,1.367,"door",0,NA,5.023
"1732","visit","glove",37,1,36,2.671,15,0.375,0,1,0,1.303,"",NA,NA,NA
"1732","smother","surgery",38,1,38,2.327,19,0.475,0,1,0,1.183,"",NA,NA,NA
"1732","bleach","ruin",39,1,30,2.471,6,0.15,1,0,0,0.935,"norm",0,NA,104.994
"1732","date","laugh",40,1,38,2.151,20,0.5,0,1,0,0.871,"",NA,NA,NA
"1732","bias","sirloin",1,2,22,4.228,4,0.1,1,0,0,1.048,"check",0,NA,6.981
"1732","plant","worm",2,2,36,2.575,14,0.35,1,0,0,1.055,"home",0,NA,4.527
"1732","caring","skirt",3,2,50,4.175,35,0.875,0,1,0,0.959,"",NA,NA,NA
"1732","climax","saucer",4,2,44,2.943,28,0.7,0,0,1,1.103,"",NA,NA,NA
"1732","remind","foam",5,2,35,2.238,12,0.3,1,1,1,1.087,"mill",0,NA,7.139
"1732","want","ascent",6,2,47,3.503,32,0.8,0,0,1,1.335,"",NA,NA,NA
"1732","calf","annoy",7,2,18,3.479,2,0.05,1,0,0,0.967,"ffarm",0,NA,11.788
"1732","nerve","bumper",8,2,44,2.679,29,0.725,0,0,1,1.367,"",NA,NA,NA
"1732","need","faucet",9,2,38,2.735,18,0.45,1,1,1,1.879,"want",0,NA,4.891
"1732","bullet","walkway",10,2,52,4.636,36,0.9,0,1,0,12.511,"",NA,NA,NA
"1732","pea","bathtub",11,2,21,3.599,3,0.075,1,0,0,1.391,"home",0,NA,5.236
"1732","fee","chowder",12,2,42,2.767,25,0.625,0,0,1,1.216,"",NA,NA,NA
"1732","link","crisis",13,2,33,2.391,8,0.2,1,1,1,0.975,"mill",0,NA,5.336
"1732","chicken","beet",14,2,71,3.295,39,0.975,0,0,1,1.215,"",NA,NA,NA
"1732","port","cinema",15,2,38,2.839,17,0.425,1,1,1,1.087,"wine",0,NA,8.716
"1732","knock","otter",16,2,34,3.004,9,0.225,1,1,1,1.367,"open",0,NA,641.191
"1732","bacon","feud",17,2,37,2.791,16,0.4,1,1,1,1.167,"bit",0,NA,4.989
"1732","find","clown",18,2,34,2.327,11,0.275,1,0,0,1.022,"come",0,NA,5.703
"1732","process","joker",19,2,42,2.423,26,0.65,0,0,1,0.976,"",NA,NA,NA
"1732","visit","glove",20,2,36,2.671,15,0.375,0,1,0,1.303,"",NA,NA,NA
"1732","forest","knob",21,2,46,3.287,31,0.775,0,0,1,1.081,"",NA,NA,NA
"1732","collect","loyalty",22,2,40,2.783,23,0.575,1,1,1,2.029,"pain",0,NA,6.394
"1732","shrink","mafia",23,2,34,2.229,10,0.25,1,1,1,1.015,"wrap",0,NA,4.431
"1732","pork","emperor",24,2,35,2.543,13,0.325,1,0,0,2.463,"mill",0,NA,4.454
"1732","anger","decay",25,2,65,3.151,38,0.95,0,0,1,1.055,"",NA,NA,NA
"1732","mill","feast",26,2,10,4.316,1,0.025,1,0,0,1.223,"prison",0,NA,6.844
"1732","rock","milk",27,2,42,2.127,27,0.675,0,1,0,1.199,"",NA,NA,NA
"1732","capital","figure",28,2,30,2.893,7,0.175,1,0,0,1.119,"city",0,NA,7.42
"1732","bleach","ruin",29,2,30,2.471,6,0.15,1,0,0,0.935,"mad",0,NA,7.918
"1732","copy","bedroom",30,2,46,3.173,30,0.75,0,0,1,1.223,"",NA,NA,NA
"1732","date","laugh",31,2,38,2.151,20,0.5,0,1,0,0.871,"",NA,NA,NA
"1732","glue","force",32,2,47,4.015,33,0.825,0,1,0,1.014,"",NA,NA,NA
"1732","risk","zero",33,2,54,2.319,37,0.925,0,1,0,0.983,"",NA,NA,NA
"1732","smother","surgery",34,2,38,2.327,19,0.475,0,1,0,1.183,"",NA,NA,NA
"1732","biology","temper",35,2,27,2.637,5,0.125,1,0,0,0.967,"term",0,NA,18.966
"1732","prison","loaf",36,2,100,3.51,40,1,0,0,1,1.335,"",NA,NA,NA
"1732","replace","roach",37,2,40,2.535,24,0.6,0,1,0,1.207,"",NA,NA,NA
"1732","banner","glide",38,2,48,2.238,34,0.85,0,1,0,0.959,"",NA,NA,NA
"1732","grip","beach",39,2,39,3.471,21,0.525,1,1,1,1.215,"touch",0,NA,5.17
"1732","fan","feature",40,2,40,3.071,22,0.55,1,1,1,1.319,"more",0,NA,6.175
"1732","fee","chowder",1,3,42,2.767,25,0.625,0,0,1,1.216,"",NA,NA,NA
"1732","climax","saucer",2,3,44,2.943,28,0.7,0,0,1,1.103,"",NA,NA,NA
"1732","calf","annoy",3,3,18,3.479,2,0.05,1,0,0,0.967,"mill",0,NA,5.468
"1732","nerve","bumper",4,3,44,2.679,29,0.725,0,0,1,1.367,"",NA,NA,NA
"1732","smother","surgery",5,3,38,2.327,19,0.475,0,1,0,1.183,"",NA,NA,NA
"1732","forest","knob",6,3,46,3.287,31,0.775,0,0,1,1.081,"",NA,NA,NA
"1732","need","faucet",7,3,38,2.735,18,0.45,1,1,1,1.879,"want",0,NA,5.462
"1732","process","joker",8,3,42,2.423,26,0.65,0,0,1,0.976,"",NA,NA,NA
"1732","find","clown",9,3,34,2.327,11,0.275,1,0,0,1.022,"more",0,NA,3.893
"1732","prison","loaf",10,3,100,3.51,40,1,0,0,1,1.335,"",NA,NA,NA
"1732","biology","temper",11,3,27,2.637,5,0.125,1,0,0,0.967,"term",0,NA,4.053
"1732","bleach","ruin",12,3,30,2.471,6,0.15,1,0,0,0.935,"come",0,NA,4.512
"1732","banner","glide",13,3,48,2.238,34,0.85,0,1,0,0.959,"",NA,NA,NA
"1732","glue","force",14,3,47,4.015,33,0.825,0,1,0,1.014,"",NA,NA,NA
"1732","bias","sirloin",15,3,22,4.228,4,0.1,1,0,0,1.048,"more",0,NA,3.82
"1732","knock","otter",16,3,34,3.004,9,0.225,1,1,1,1.367,"door",0,NA,3.703
"1732","want","ascent",17,3,47,3.503,32,0.8,0,0,1,1.335,"",NA,NA,NA
"1732","grip","beach",18,3,39,3.471,21,0.525,1,1,1,1.215,"term",0,NA,6.077
"1732","visit","glove",19,3,36,2.671,15,0.375,0,1,0,1.303,"",NA,NA,NA
"1732","rock","milk",20,3,42,2.127,27,0.675,0,1,0,1.199,"",NA,NA,NA
"1732","capital","figure",21,3,30,2.893,7,0.175,1,0,0,1.119,"city",0,NA,4.259
"1732","date","laugh",22,3,38,2.151,20,0.5,0,1,0,0.871,"",NA,NA,NA
"1732","pea","bathtub",23,3,21,3.599,3,0.075,1,0,0,1.391,"more",0,NA,5.545
"1732","caring","skirt",24,3,50,4.175,35,0.875,0,1,0,0.959,"",NA,NA,NA
"1732","fan","feature",25,3,40,3.071,22,0.55,1,1,1,1.319,"mill",0,NA,5.693
"1732","risk","zero",26,3,54,2.319,37,0.925,0,1,0,0.983,"",NA,NA,NA
"1732","bacon","feud",27,3,37,2.791,16,0.4,1,1,1,1.167,"bleach",0,NA,6.397
"1732","chicken","beet",28,3,71,3.295,39,0.975,0,0,1,1.215,"",NA,NA,NA
"1732","link","crisis",29,3,33,2.391,8,0.2,1,1,1,0.975,"none",0,NA,4.207
"1732","copy","bedroom",30,3,46,3.173,30,0.75,0,0,1,1.223,"",NA,NA,NA
"1732","bullet","walkway",31,3,52,4.636,36,0.9,0,1,0,12.511,"",NA,NA,NA
"1732","plant","worm",32,3,36,2.575,14,0.35,1,0,0,1.055,"sand",0,NA,8.028
"1732","mill","feast",33,3,10,4.316,1,0.025,1,0,0,1.223,"pea",0,NA,5.367
"1732","remind","foam",34,3,35,2.238,12,0.3,1,1,1,1.087,"mill",0,NA,4.903
"1732","pork","emperor",35,3,35,2.543,13,0.325,1,0,0,2.463,"pie",0,NA,4.694
"1732","shrink","mafia",36,3,34,2.229,10,0.25,1,1,1,1.015,"wrap",0,NA,4.463
"1732","replace","roach",37,3,40,2.535,24,0.6,0,1,0,1.207,"",NA,NA,NA
"1732","port","cinema",38,3,38,2.839,17,0.425,1,1,1,1.087,"wine",0,NA,5.005
"1732","anger","decay",39,3,65,3.151,38,0.95,0,0,1,1.055,"",NA,NA,NA
"1732","collect","loyalty",40,3,40,2.783,23,0.575,1,1,1,2.029,"pay",0,NA,4.447
"1762","fee","chowder",1,1,1,2.717,18,0.45,0,1,0,1.095,"",NA,NA,NA
"1762","pea","bathtub",2,1,100,2.191,36,0.9,0,0,1,1.509,"",NA,NA,NA
"1762","risk","zero",3,1,1,2.913,4,0.1,1,0,0,1.157,"antler",0,NA,9.128
"1762","climax","saucer",4,1,100,2.583,35,0.875,0,0,1,1.417,"",NA,NA,NA
"1762","link","crisis",5,1,3,2.731,30,0.75,0,1,0,1.331,"",NA,NA,NA
"1762","nerve","bumper",6,1,1,2.959,27,0.675,1,1,1,1.385,"festive",0,NA,5.77
"1762","biology","temper",7,1,1,2.193,9,0.225,1,0,0,0.743,"planter",0,NA,7.237
"1762","calf","annoy",8,1,27,2.419,32,0.8,0,1,0,0.703,"",NA,NA,NA
"1762","banner","glide",9,1,1,1.963,8,0.2,1,0,0,0.837,"climb",0,NA,18.32
"1762","pork","emperor",10,1,100,2.491,38,0.95,0,0,1,1.197,"",NA,NA,NA
"1762","fan","feature",11,1,1,7.181,16,0.4,0,1,0,0.727,"",NA,NA,NA
"1762","copy","bedroom",12,1,1,2.849,10,0.25,1,0,0,0.571,"plumb",0,NA,4.837
"1762","collect","loyalty",13,1,1,3.679,26,0.65,1,1,1,0.525,"hard",0,NA,5.092
"1762","mill","feast",14,1,1,1.904,21,0.525,1,1,1,0.984,"flag",0,NA,4.614
"1762","forest","knob",15,1,1,2.371,13,0.325,1,0,0,0.979,"run",0,NA,3.947
"1762","plant","worm",16,1,23,10.558,31,0.775,0,1,0,2.786,"",NA,NA,NA
"1762","visit","glove",17,1,1,2.231,22,0.55,1,1,1,0.735,"pants",0,NA,5.887
"1762","knock","otter",18,1,1,2.107,12,0.3,1,0,0,1.128,"love",0,NA,4.315
"1762","anger","decay",19,1,100,2.765,39,0.975,0,0,1,0.679,"",NA,NA,NA
"1762","prison","loaf",20,1,1,2.231,7,0.175,1,0,0,0.971,"people",0,NA,4.449
"1762","process","joker",21,1,1,3.821,2,0.05,1,0,0,4.55,"worm",0,NA,4.276
"1762","glue","force",22,1,1,1.683,23,0.575,1,1,1,0.719,"blanket",0,NA,4.858
"1762","bias","sirloin",23,1,72,3.375,33,0.825,0,0,1,0.688,"",NA,NA,NA
"1762","shrink","mafia",24,1,1,2.199,15,0.375,0,1,0,2.177,"",NA,NA,NA
"1762","replace","roach",25,1,1,3.906,3,0.075,1,0,0,1.159,"crab",0,NA,5.143
"1762","chicken","beet",26,1,100,2.631,40,1,0,0,1,0.813,"",NA,NA,NA
"1762","smother","surgery",27,1,77,4.83,34,0.85,0,0,1,7.871,"",NA,NA,NA
"1762","bleach","ruin",28,1,1,3.021,6,0.15,1,1,1,2.397,"sand",0,NA,4.086
"1762","date","laugh",29,1,100,2.151,37,0.925,0,0,1,1.167,"",NA,NA,NA
"1762","rock","milk",30,1,1,1.909,19,0.475,0,1,0,0.673,"",NA,NA,NA
"1762","grip","beach",31,1,1,2.594,29,0.725,0,0,1,0.694,"",NA,NA,NA
"1762","find","clown",32,1,1,1.754,25,0.625,1,1,1,0.617,"sprinkle",0,NA,5.525
"1762","bullet","walkway",33,1,1,2.255,20,0.5,0,1,0,0.875,"",NA,NA,NA
"1762","need","faucet",34,1,1,2.395,17,0.425,0,1,0,1.049,"",NA,NA,NA
"1762","bacon","feud",35,1,1,2.191,14,0.35,0,1,0,1.157,"",NA,NA,NA
"1762","want","ascent",36,1,1,2.325,11,0.275,1,0,0,0.727,"sheep",0,NA,8.526
"1762","port","cinema",37,1,1,4.573,1,0.025,1,1,1,1.839,"watch",0,NA,10.12
"1762","caring","skirt",38,1,1,2.271,24,0.6,1,1,1,0.673,"team",0,NA,4.331
"1762","capital","figure",39,1,1,2.137,5,0.125,1,1,1,0.987,"fight",0,NA,9.863
"1762","remind","foam",40,1,1,2.435,28,0.7,0,0,1,0.853,"",NA,NA,NA
"1762","banner","glide",1,2,1,1.963,8,0.2,1,0,0,0.837,"dont know",0,NA,6.046
"1762","anger","decay",2,2,100,2.765,39,0.975,0,0,1,0.679,"",NA,NA,NA
"1762","capital","figure",3,2,1,2.137,5,0.125,1,1,1,0.987,"dont know",0,NA,9.584
"1762","caring","skirt",4,2,1,2.271,24,0.6,1,1,1,0.673,"dont know",0,NA,5.889
"1762","biology","temper",5,2,1,2.193,9,0.225,1,0,0,0.743,"microscope",0,NA,3.808
"1762","climax","saucer",6,2,100,2.583,35,0.875,0,0,1,1.417,"",NA,NA,NA
"1762","forest","knob",7,2,1,2.371,13,0.325,1,0,0,0.979,"run",0,NA,3.502
"1762","port","cinema",8,2,1,4.573,1,0.025,1,1,1,1.839,"watch",0,NA,5.535
"1762","prison","loaf",9,2,1,2.231,7,0.175,1,0,0,0.971,"soap",0,NA,2.549
"1762","fee","chowder",10,2,1,2.717,18,0.45,0,1,0,1.095,"",NA,NA,NA
"1762","replace","roach",11,2,1,3.906,3,0.075,1,0,0,1.159,"blanket",0,NA,2.595
"1762","process","joker",12,2,1,3.821,2,0.05,1,0,0,4.55,"think",0,NA,2.644
"1762","find","clown",13,2,1,1.754,25,0.625,1,1,1,0.617,"look",0,NA,2.507
"1762","chicken","beet",14,2,100,2.631,40,1,0,0,1,0.813,"",NA,NA,NA
"1762","fan","feature",15,2,1,7.181,16,0.4,0,1,0,0.727,"",NA,NA,NA
"1762","bullet","walkway",16,2,1,2.255,20,0.5,0,1,0,0.875,"",NA,NA,NA
"1762","shrink","mafia",17,2,1,2.199,15,0.375,0,1,0,2.177,"",NA,NA,NA
"1762","plant","worm",18,2,23,10.558,31,0.775,0,1,0,2.786,"",NA,NA,NA
"1762","mill","feast",19,2,1,1.904,21,0.525,1,1,1,0.984,"mall",0,NA,6.854
"1762","pork","emperor",20,2,100,2.491,38,0.95,0,0,1,1.197,"",NA,NA,NA
"1762","calf","annoy",21,2,27,2.419,32,0.8,0,1,0,0.703,"",NA,NA,NA
"1762","visit","glove",22,2,1,2.231,22,0.55,1,1,1,0.735,"speak",0,NA,2.575
"1762","nerve","bumper",23,2,1,2.959,27,0.675,1,1,1,1.385,"function",0,NA,4.127
"1762","link","crisis",24,2,3,2.731,30,0.75,0,1,0,1.331,"",NA,NA,NA
"1762","remind","foam",25,2,1,2.435,28,0.7,0,0,1,0.853,"",NA,NA,NA
"1762","risk","zero",26,2,1,2.913,4,0.1,1,0,0,1.157,"don't know",0,NA,6.56
"1762","bias","sirloin",27,2,72,3.375,33,0.825,0,0,1,0.688,"",NA,NA,NA
"1762","glue","force",28,2,1,1.683,23,0.575,1,1,1,0.719,"orange",0,NA,6.686
"1762","collect","loyalty",29,2,1,3.679,26,0.65,1,1,1,0.525,"rock",0,NA,1.969
"1762","bleach","ruin",30,2,1,3.021,6,0.15,1,1,1,2.397,"car",0,NA,5.496
"1762","bacon","feud",31,2,1,2.191,14,0.35,0,1,0,1.157,"",NA,NA,NA
"1762","grip","beach",32,2,1,2.594,29,0.725,0,0,1,0.694,"",NA,NA,NA
"1762","date","laugh",33,2,100,2.151,37,0.925,0,0,1,1.167,"",NA,NA,NA
"1762","smother","surgery",34,2,77,4.83,34,0.85,0,0,1,7.871,"",NA,NA,NA
"1762","need","faucet",35,2,1,2.395,17,0.425,0,1,0,1.049,"",NA,NA,NA
"1762","want","ascent",36,2,1,2.325,11,0.275,1,0,0,0.727,"grapes",0,NA,6.31
"1762","rock","milk",37,2,1,1.909,19,0.475,0,1,0,0.673,"",NA,NA,NA
"1762","copy","bedroom",38,2,1,2.849,10,0.25,1,0,0,0.571,"dont know",0,NA,3.057
"1762","knock","otter",39,2,1,2.107,12,0.3,1,0,0,1.128,"milk",0,NA,3.961
"1762","pea","bathtub",40,2,100,2.191,36,0.9,0,0,1,1.509,"",NA,NA,NA
"1762","collect","loyalty",1,3,1,3.679,26,0.65,1,1,1,0.525,"dont know",0,NA,4.863
"1762","remind","foam",2,3,1,2.435,28,0.7,0,0,1,0.853,"",NA,NA,NA
"1762","bias","sirloin",3,3,72,3.375,33,0.825,0,0,1,0.688,"",NA,NA,NA
"1762","mill","feast",4,3,1,1.904,21,0.525,1,1,1,0.984,"dont know",0,NA,2.626
"1762","nerve","bumper",5,3,1,2.959,27,0.675,1,1,1,1.385,"dont know",0,NA,4.726
"1762","knock","otter",6,3,1,2.107,12,0.3,1,0,0,1.128,"dont know",0,NA,2.807
"1762","anger","decay",7,3,100,2.765,39,0.975,0,0,1,0.679,"",NA,NA,NA
"1762","bacon","feud",8,3,1,2.191,14,0.35,0,1,0,1.157,"",NA,NA,NA
"1762","chicken","beet",9,3,100,2.631,40,1,0,0,1,0.813,"",NA,NA,NA
"1762","process","joker",10,3,1,3.821,2,0.05,1,0,0,4.55,"dont know",0,NA,11.48
"1762","pork","emperor",11,3,100,2.491,38,0.95,0,0,1,1.197,"",NA,NA,NA
"1762","fee","chowder",12,3,1,2.717,18,0.45,0,1,0,1.095,"",NA,NA,NA
"1762","plant","worm",13,3,23,10.558,31,0.775,0,1,0,2.786,"",NA,NA,NA
"1762","copy","bedroom",14,3,1,2.849,10,0.25,1,0,0,0.571,"paste",0,NA,6.848
"1762","date","laugh",15,3,100,2.151,37,0.925,0,0,1,1.167,"",NA,NA,NA
"1762","capital","figure",16,3,1,2.137,5,0.125,1,1,1,0.987,"fight",0,NA,1.827
"1762","want","ascent",17,3,1,2.325,11,0.275,1,0,0,0.727,"need",0,NA,2.654
"1762","bleach","ruin",18,3,1,3.021,6,0.15,1,1,1,2.397,"grip",0,NA,2.796
"1762","calf","annoy",19,3,27,2.419,32,0.8,0,1,0,0.703,"",NA,NA,NA
"1762","biology","temper",20,3,1,2.193,9,0.225,1,0,0,0.743,"microscope",0,NA,2.89
"1762","need","faucet",21,3,1,2.395,17,0.425,0,1,0,1.049,"",NA,NA,NA
"1762","fan","feature",22,3,1,7.181,16,0.4,0,1,0,0.727,"",NA,NA,NA
"1762","find","clown",23,3,1,1.754,25,0.625,1,1,1,0.617,"seek",0,NA,2.759
"1762","banner","glide",24,3,1,1.963,8,0.2,1,0,0,0.837,"flag",0,NA,2.412
"1762","link","crisis",25,3,3,2.731,30,0.75,0,1,0,1.331,"",NA,NA,NA
"1762","grip","beach",26,3,1,2.594,29,0.725,0,0,1,0.694,"",NA,NA,NA
"1762","port","cinema",27,3,1,4.573,1,0.025,1,1,1,1.839,"dont iknow",0,NA,3.72
"1762","pea","bathtub",28,3,100,2.191,36,0.9,0,0,1,1.509,"",NA,NA,NA
"1762","smother","surgery",29,3,77,4.83,34,0.85,0,0,1,7.871,"",NA,NA,NA
"1762","forest","knob",30,3,1,2.371,13,0.325,1,0,0,0.979,"run",0,NA,2.657
"1762","prison","loaf",31,3,1,2.231,7,0.175,1,0,0,0.971,"time",0,NA,2.145
"1762","risk","zero",32,3,1,2.913,4,0.1,1,0,0,1.157,"reward",0,NA,2.658
"1762","visit","glove",33,3,1,2.231,22,0.55,1,1,1,0.735,"leave",0,NA,4.779
"1762","caring","skirt",34,3,1,2.271,24,0.6,1,1,1,0.673,"hug",0,NA,2.722
"1762","rock","milk",35,3,1,1.909,19,0.475,0,1,0,0.673,"",NA,NA,NA
"1762","climax","saucer",36,3,100,2.583,35,0.875,0,0,1,1.417,"",NA,NA,NA
"1762","shrink","mafia",37,3,1,2.199,15,0.375,0,1,0,2.177,"",NA,NA,NA
"1762","replace","roach",38,3,1,3.906,3,0.075,1,0,0,1.159,"Don't know",0,NA,3.678
"1762","glue","force",39,3,1,1.683,23,0.575,1,1,1,0.719,"don't know",0,NA,2.927
"1762","bullet","walkway",40,3,1,2.255,20,0.5,0,1,0,0.875,"",NA,NA,NA
"1773","chicken","beet",1,1,55,1.873,26,0.65,1,0,0,1.102,"beets",0,NA,12.649
"1773","bullet","walkway",2,1,33,9.801,5,0.125,0,0,1,7.197,"",NA,NA,NA
"1773","port","cinema",3,1,48,1.905,19,0.475,0,0,1,0.697,"",NA,NA,NA
"1773","fan","feature",4,1,25,2.809,4,0.1,0,0,1,1.02,"",NA,NA,NA
"1773","remind","foam",5,1,45,1.586,16,0.4,1,0,0,0.59,"forget",0,NA,6.71
"1773","visit","glove",6,1,75,2.962,38,0.95,1,1,1,1.054,"glowing",0,NA,7.085
"1773","link","crisis",7,1,61,1.714,32,0.8,1,0,0,1.811,"sauce",0,NA,10.266
"1773","pork","emperor",8,1,50,2.351,23,0.575,0,0,1,0.845,"",NA,NA,NA
"1773","calf","annoy",9,1,41,2.655,12,0.3,0,1,0,0.621,"",NA,NA,NA
"1773","grip","beach",10,1,8,2.094,1,0.025,0,1,0,0.864,"",NA,NA,NA
"1773","bacon","feud",11,1,55,1.794,25,0.625,1,1,1,1.23,"fear",0,NA,5.969
"1773","knock","otter",12,1,61,1.714,30,0.75,1,1,1,1.163,"otter",1,NA,5.864
"1773","banner","glide",13,1,79,1.765,40,1,1,1,1,1.243,"ruin",0,NA,13.054
"1773","bleach","ruin",14,1,65,1.708,33,0.825,1,1,1,0.758,"ruin",1,NA,4.752
"1773","caring","skirt",15,1,36,1.865,9,0.225,0,1,0,1.552,"",NA,NA,NA
"1773","collect","loyalty",16,1,53,2.913,24,0.6,0,0,1,0.796,"",NA,NA,NA
"1773","anger","decay",17,1,15,4.492,3,0.075,0,1,0,0.878,"",NA,NA,NA
"1773","date","laugh",18,1,10,1.454,2,0.05,0,1,0,0.642,"",NA,NA,NA
"1773","fee","chowder",19,1,38,1.484,10,0.25,0,1,0,0.767,"",NA,NA,NA
"1773","forest","knob",20,1,33,2.953,6,0.15,0,0,1,4.668,"",NA,NA,NA
"1773","need","faucet",21,1,49,2.307,20,0.5,0,0,1,0.939,"",NA,NA,NA
"1773","capital","figure",22,1,48,2.079,18,0.45,0,0,1,0.685,"",NA,NA,NA
"1773","nerve","bumper",23,1,61,3.154,31,0.775,1,0,0,3.662,"best",0,NA,10.352
"1773","pea","bathtub",24,1,43,1.282,14,0.35,1,0,0,0.814,"roach",0,NA,11.631
"1773","mill","feast",25,1,49,1.714,21,0.525,0,0,1,0.735,"",NA,NA,NA
"1773","shrink","mafia",26,1,36,2.391,8,0.2,0,1,0,1.378,"",NA,NA,NA
"1773","bias","sirloin",27,1,57,3.019,27,0.675,1,1,1,0.99,"simple",0,NA,14.507
"1773","plant","worm",28,1,57,3.317,28,0.7,1,0,0,0.655,"worm",1,NA,8.172
"1773","rock","milk",29,1,44,1.746,15,0.375,1,0,0,0.814,"mill",0,NA,6.074
"1773","replace","roach",30,1,66,1.626,35,0.875,1,1,1,1.449,"fork",0,NA,11.245
"1773","process","joker",31,1,39,1.63,11,0.275,0,1,0,1.122,"",NA,NA,NA
"1773","copy","bedroom",32,1,69,2.362,37,0.925,1,0,0,0.686,"date",0,NA,10.528
"1773","find","clown",33,1,34,1.422,7,0.175,0,1,0,0.767,"",NA,NA,NA
"1773","prison","loaf",34,1,47,3.677,17,0.425,0,0,1,0.621,"",NA,NA,NA
"1773","climax","saucer",35,1,77,4.937,39,0.975,1,1,1,1.442,"sauce",0,NA,3.55
"1773","smother","surgery",36,1,60,2.142,29,0.725,1,1,1,0.706,"surface",0,NA,5.453
"1773","glue","force",37,1,68,1.701,36,0.9,1,1,1,0.826,"grip",0,NA,9.655
"1773","risk","zero",38,1,65,1.35,34,0.85,1,0,0,0.734,"zone",0,NA,6.433
"1773","biology","temper",39,1,43,5.322,13,0.325,0,1,0,6.033,"",NA,NA,NA
"1773","want","ascent",40,1,49,2.165,22,0.55,1,0,0,1.427,"ask",0,NA,3.356
"1773","glue","force",1,2,68,1.701,36,0.9,1,1,1,0.826,"visit",0,NA,12.788
"1773","remind","foam",2,2,45,1.586,16,0.4,1,0,0,0.59,"beach",0,NA,9.627
"1773","pea","bathtub",3,2,43,1.282,14,0.35,1,0,0,0.814,"figure",0,NA,6.765
"1773","pork","emperor",4,2,50,2.351,23,0.575,0,0,1,0.845,"",NA,NA,NA
"1773","banner","glide",5,2,79,1.765,40,1,1,1,1,1.243,"bee",0,NA,9.607
"1773","visit","glove",6,2,75,2.962,38,0.95,1,1,1,1.054,"globe",0,NA,5.642
"1773","collect","loyalty",7,2,53,2.913,24,0.6,0,0,1,0.796,"",NA,NA,NA
"1773","knock","otter",8,2,61,1.714,30,0.75,1,1,1,1.163,"otter",1,NA,5.602
"1773","copy","bedroom",9,2,69,2.362,37,0.925,1,0,0,0.686,"local",0,NA,6.653
"1773","plant","worm",10,2,57,3.317,28,0.7,1,0,0,0.655,"worm",1,NA,2.535
"1773","anger","decay",11,2,15,4.492,3,0.075,0,1,0,0.878,"",NA,NA,NA
"1773","caring","skirt",12,2,36,1.865,9,0.225,0,1,0,1.552,"",NA,NA,NA
"1773","fee","chowder",13,2,38,1.484,10,0.25,0,1,0,0.767,"",NA,NA,NA
"1773","risk","zero",14,2,65,1.35,34,0.85,1,0,0,0.734,"zone",0,NA,6.544
"1773","shrink","mafia",15,2,36,2.391,8,0.2,0,1,0,1.378,"",NA,NA,NA
"1773","bullet","walkway",16,2,33,9.801,5,0.125,0,0,1,7.197,"",NA,NA,NA
"1773","prison","loaf",17,2,47,3.677,17,0.425,0,0,1,0.621,"",NA,NA,NA
"1773","need","faucet",18,2,49,2.307,20,0.5,0,0,1,0.939,"",NA,NA,NA
