"subn","word1","word2","trial","list","jol","jolrt","jolrank","jolrankp","practice","honor","choice","choicert"
"1053","fan","feature",1,1,-99,-99,NA,NA,0,0,-99,-99
"1053","grip","beach",2,1,-99,-99,NA,NA,1,0,-99,-99
"1053","need","faucet",3,1,-99,-99,NA,NA,0,1,-99,-99
"1053","pork","emperor",4,1,-99,-99,NA,NA,1,1,-99,-99
"1053","smother","surgery",5,1,-99,-99,NA,NA,1,0,-99,-99
"1053","caring","skirt",6,1,-99,-99,NA,NA,0,1,-99,-99
"1053","process","joker",7,1,-99,-99,NA,NA,1,0,-99,-99
"1053","chicken","beet",8,1,-99,-99,NA,NA,1,1,-99,-99
"1053","shrink","mafia",9,1,-99,-99,NA,NA,0,1,-99,-99
"1053","bullet","walkway",10,1,-99,-99,NA,NA,1,1,-99,-99
"1053","knock","otter",11,1,-99,-99,NA,NA,0,1,-99,-99
"1053","port","cinema",12,1,-99,-99,NA,NA,0,0,-99,-99
"1053","biology","temper",13,1,-99,-99,NA,NA,0,0,-99,-99
"1053","bacon","feud",14,1,-99,-99,NA,NA,1,1,-99,-99
"1053","visit","glove",15,1,-99,-99,NA,NA,1,0,-99,-99
"1053","bleach","ruin",16,1,-99,-99,NA,NA,1,1,-99,-99
"1053","banner","glide",17,1,-99,-99,NA,NA,0,1,-99,-99
"1053","plant","worm",18,1,-99,-99,NA,NA,0,1,-99,-99
"1053","calf","annoy",19,1,-99,-99,NA,NA,1,0,-99,-99
"1053","fee","chowder",20,1,-99,-99,NA,NA,0,0,-99,-99
"1053","bias","sirloin",21,1,-99,-99,NA,NA,1,1,-99,-99
"1053","replace","roach",22,1,-99,-99,NA,NA,0,1,-99,-99
"1053","want","ascent",23,1,-99,-99,NA,NA,0,0,-99,-99
"1053","copy","bedroom",24,1,-99,-99,NA,NA,1,0,-99,-99
"1053","collect","loyalty",25,1,-99,-99,NA,NA,0,1,-99,-99
"1053","remind","foam",26,1,-99,-99,NA,NA,1,0,-99,-99
"1053","risk","zero",27,1,-99,-99,NA,NA,0,1,-99,-99
"1053","climax","saucer",28,1,-99,-99,NA,NA,0,0,-99,-99
"1053","forest","knob",29,1,-99,-99,NA,NA,0,0,-99,-99
"1053","anger","decay",30,1,-99,-99,NA,NA,1,0,-99,-99
"1053","nerve","bumper",31,1,-99,-99,NA,NA,0,0,-99,-99
"1053","find","clown",32,1,-99,-99,NA,NA,1,0,-99,-99
"1053","prison","loaf",33,1,-99,-99,NA,NA,1,1,-99,-99
"1053","pea","bathtub",34,1,-99,-99,NA,NA,1,1,-99,-99
"1053","glue","force",35,1,-99,-99,NA,NA,0,0,-99,-99
"1053","rock","milk",36,1,-99,-99,NA,NA,1,0,-99,-99
"1053","capital","figure",37,1,-99,-99,NA,NA,1,1,-99,-99
"1053","link","crisis",38,1,-99,-99,NA,NA,1,1,-99,-99
"1053","date","laugh",39,1,-99,-99,NA,NA,0,0,-99,-99
"1053","mill","feast",40,1,-99,-99,NA,NA,0,1,-99,-99
"1053","capital","figure",1,2,-99,-99,NA,NA,1,1,-99,-99
"1053","climax","saucer",2,2,-99,-99,NA,NA,0,0,-99,-99
"1053","pork","emperor",3,2,-99,-99,NA,NA,1,1,-99,-99
"1053","plant","worm",4,2,-99,-99,NA,NA,0,1,-99,-99
"1053","calf","annoy",5,2,-99,-99,NA,NA,1,0,-99,-99
"1053","banner","glide",6,2,-99,-99,NA,NA,0,1,-99,-99
"1053","shrink","mafia",7,2,-99,-99,NA,NA,0,1,-99,-99
"1053","grip","beach",8,2,-99,-99,NA,NA,1,0,-99,-99
"1053","rock","milk",9,2,-99,-99,NA,NA,1,0,-99,-99
"1053","anger","decay",10,2,-99,-99,NA,NA,1,0,-99,-99
"1053","mill","feast",11,2,-99,-99,NA,NA,0,1,-99,-99
"1053","forest","knob",12,2,-99,-99,NA,NA,0,0,-99,-99
"1053","process","joker",13,2,-99,-99,NA,NA,1,0,-99,-99
"1053","glue","force",14,2,-99,-99,NA,NA,0,0,-99,-99
"1053","remind","foam",15,2,-99,-99,NA,NA,1,0,-99,-99
"1053","bullet","walkway",16,2,-99,-99,NA,NA,1,1,-99,-99
"1053","nerve","bumper",17,2,-99,-99,NA,NA,0,0,-99,-99
"1053","bacon","feud",18,2,-99,-99,NA,NA,1,1,-99,-99
"1053","visit","glove",19,2,-99,-99,NA,NA,1,0,-99,-99
"1053","need","faucet",20,2,-99,-99,NA,NA,0,1,-99,-99
"1053","biology","temper",21,2,-99,-99,NA,NA,0,0,-99,-99
"1053","caring","skirt",22,2,-99,-99,NA,NA,0,1,-99,-99
"1053","copy","bedroom",23,2,-99,-99,NA,NA,1,0,-99,-99
"1053","bleach","ruin",24,2,-99,-99,NA,NA,1,1,-99,-99
"1053","find","clown",25,2,-99,-99,NA,NA,1,0,-99,-99
"1053","bias","sirloin",26,2,-99,-99,NA,NA,1,1,-99,-99
"1053","fan","feature",27,2,-99,-99,NA,NA,0,0,-99,-99
"1053","risk","zero",28,2,-99,-99,NA,NA,0,1,-99,-99
"1053","smother","surgery",29,2,-99,-99,NA,NA,1,0,-99,-99
"1053","date","laugh",30,2,-99,-99,NA,NA,0,0,-99,-99
"1053","want","ascent",31,2,-99,-99,NA,NA,0,0,-99,-99
"1053","collect","loyalty",32,2,-99,-99,NA,NA,0,1,-99,-99
"1053","chicken","beet",33,2,-99,-99,NA,NA,1,1,-99,-99
"1053","pea","bathtub",34,2,-99,-99,NA,NA,1,1,-99,-99
"1053","port","cinema",35,2,-99,-99,NA,NA,0,0,-99,-99
"1053","link","crisis",36,2,-99,-99,NA,NA,1,1,-99,-99
"1053","prison","loaf",37,2,-99,-99,NA,NA,1,1,-99,-99
"1053","fee","chowder",38,2,-99,-99,NA,NA,0,0,-99,-99
"1053","knock","otter",39,2,-99,-99,NA,NA,0,1,-99,-99
"1053","replace","roach",40,2,-99,-99,NA,NA,0,1,-99,-99
"1053","link","crisis",1,3,90,8.872,36,0.9,1,1,1,18.393
"1053","bias","sirloin",2,3,94,7.215,39,0.975,1,1,1,3.175
"1053","calf","annoy",3,3,35,10.24,24,0.6,1,0,0,1.8
"1053","process","joker",4,3,19,19.521,14,0.35,1,0,0,1.232
"1053","want","ascent",5,3,84,7.584,29,0.725,0,0,1,1.304
"1053","caring","skirt",6,3,18,7.688,11,0.275,0,1,0,0.96
"1053","smother","surgery",7,3,75,4.896,27,0.675,1,0,0,1.48
"1053","copy","bedroom",8,3,18,7.745,12,0.3,1,0,0,0.992
"1053","mill","feast",9,3,15,12.745,6,0.15,0,1,0,1.68
"1053","collect","loyalty",10,3,15,12.593,7,0.175,0,1,0,0.792
"1053","anger","decay",11,3,20,8.872,15,0.375,1,0,0,0.928
"1053","capital","figure",12,3,86,7.176,31,0.775,1,1,1,1.207
"1053","find","clown",13,3,22,10.937,19,0.475,1,0,0,1.121
"1053","knock","otter",14,3,14,6.184,4,0.1,0,1,0,1.216
"1053","fan","feature",15,3,84,7.552,30,0.75,0,0,1,0.831
"1053","prison","loaf",16,3,97,3.776,40,1,1,1,1,1.064
"1053","pea","bathtub",17,3,91,8.264,37,0.925,1,1,1,1.104
"1053","visit","glove",18,3,18,7.736,13,0.325,1,0,0,1.103
"1053","plant","worm",19,3,3,9.48,1,0.025,0,1,0,0.999
"1053","need","faucet",20,3,10,7.824,2,0.05,0,1,0,1.079
"1053","pork","emperor",21,3,92,8.833,38,0.95,1,1,1,1.464
"1053","fee","chowder",22,3,83,10.928,28,0.7,0,0,1,0.977
"1053","risk","zero",23,3,14,6.28,5,0.125,0,1,0,0.911
"1053","shrink","mafia",24,3,12,7.793,3,0.075,0,1,0,0.863
"1053","chicken","beet",25,3,89,4.536,34,0.85,1,1,1,0.984
"1053","rock","milk",26,3,21,10.505,17,0.425,1,0,0,0.831
"1053","banner","glide",27,3,16,7.168,8,0.2,0,1,0,0.888
"1053","replace","roach",28,3,17,8.24,10,0.25,0,1,0,1.016
"1053","remind","foam",29,3,27,11.033,23,0.575,1,0,0,1.216
"1053","grip","beach",30,3,23,5.991,20,0.5,1,0,0,0.999
"1053","bacon","feud",31,3,89,4.808,35,0.875,1,1,1,1.448
"1053","bullet","walkway",32,3,87,4.313,33,0.825,1,1,1,0.959
"1053","date","laugh",33,3,69,12.465,26,0.65,0,0,1,0.855
"1053","biology","temper",34,3,62,9.433,25,0.625,0,0,1,0.863
"1053","nerve","bumper",35,3,26,10.001,21,0.525,0,0,1,0.928
"1053","bleach","ruin",36,3,86,7.08,32,0.8,1,1,1,1.135
"1053","forest","knob",37,3,26,4.479,22,0.55,0,0,1,0.896
"1053","port","cinema",38,3,20,7.032,16,0.4,0,0,1,0.824
"1053","glue","force",39,3,21,3.728,18,0.45,0,0,1,0.776
"1053","climax","saucer",40,3,16,8.633,9,0.225,0,0,1,0.889
"1055","smother","surgery",1,1,-99,-99,NA,NA,0,0,-99,-99
"1055","process","joker",2,1,-99,-99,NA,NA,1,1,-99,-99
"1055","link","crisis",3,1,-99,-99,NA,NA,0,1,-99,-99
"1055","climax","saucer",4,1,-99,-99,NA,NA,0,0,-99,-99
"1055","bleach","ruin",5,1,-99,-99,NA,NA,1,1,-99,-99
"1055","knock","otter",6,1,-99,-99,NA,NA,0,0,-99,-99
"1055","banner","glide",7,1,-99,-99,NA,NA,0,0,-99,-99
"1055","shrink","mafia",8,1,-99,-99,NA,NA,1,1,-99,-99
"1055","risk","zero",9,1,-99,-99,NA,NA,0,1,-99,-99
"1055","replace","roach",10,1,-99,-99,NA,NA,1,1,-99,-99
"1055","want","ascent",11,1,-99,-99,NA,NA,0,1,-99,-99
"1055","capital","figure",12,1,-99,-99,NA,NA,1,0,-99,-99
"1055","mill","feast",13,1,-99,-99,NA,NA,1,0,-99,-99
"1055","calf","annoy",14,1,-99,-99,NA,NA,1,0,-99,-99
"1055","bacon","feud",15,1,-99,-99,NA,NA,0,0,-99,-99
"1055","fan","feature",16,1,-99,-99,NA,NA,0,1,-99,-99
"1055","remind","foam",17,1,-99,-99,NA,NA,1,1,-99,-99
"1055","forest","knob",18,1,-99,-99,NA,NA,1,1,-99,-99
"1055","port","cinema",19,1,-99,-99,NA,NA,1,0,-99,-99
"1055","pork","emperor",20,1,-99,-99,NA,NA,1,0,-99,-99
"1055","glue","force",21,1,-99,-99,NA,NA,0,0,-99,-99
"1055","plant","worm",22,1,-99,-99,NA,NA,1,0,-99,-99
"1055","prison","loaf",23,1,-99,-99,NA,NA,1,0,-99,-99
"1055","date","laugh",24,1,-99,-99,NA,NA,1,0,-99,-99
"1055","bias","sirloin",25,1,-99,-99,NA,NA,0,1,-99,-99
"1055","pea","bathtub",26,1,-99,-99,NA,NA,0,1,-99,-99
"1055","bullet","walkway",27,1,-99,-99,NA,NA,1,1,-99,-99
"1055","grip","beach",28,1,-99,-99,NA,NA,0,1,-99,-99
"1055","chicken","beet",29,1,-99,-99,NA,NA,1,1,-99,-99
"1055","collect","loyalty",30,1,-99,-99,NA,NA,0,1,-99,-99
"1055","nerve","bumper",31,1,-99,-99,NA,NA,0,1,-99,-99
"1055","need","faucet",32,1,-99,-99,NA,NA,0,0,-99,-99
"1055","rock","milk",33,1,-99,-99,NA,NA,1,1,-99,-99
"1055","caring","skirt",34,1,-99,-99,NA,NA,0,0,-99,-99
"1055","anger","decay",35,1,-99,-99,NA,NA,1,0,-99,-99
"1055","copy","bedroom",36,1,-99,-99,NA,NA,1,1,-99,-99
"1055","find","clown",37,1,-99,-99,NA,NA,0,1,-99,-99
"1055","fee","chowder",38,1,-99,-99,NA,NA,0,0,-99,-99
"1055","visit","glove",39,1,-99,-99,NA,NA,1,0,-99,-99
"1055","biology","temper",40,1,-99,-99,NA,NA,0,0,-99,-99
"1055","risk","zero",1,2,-99,-99,NA,NA,0,1,-99,-99
"1055","bacon","feud",2,2,-99,-99,NA,NA,0,0,-99,-99
"1055","bullet","walkway",3,2,-99,-99,NA,NA,1,1,-99,-99
"1055","chicken","beet",4,2,-99,-99,NA,NA,1,1,-99,-99
"1055","visit","glove",5,2,-99,-99,NA,NA,1,0,-99,-99
"1055","date","laugh",6,2,-99,-99,NA,NA,1,0,-99,-99
"1055","climax","saucer",7,2,-99,-99,NA,NA,0,0,-99,-99
"1055","calf","annoy",8,2,-99,-99,NA,NA,1,0,-99,-99
"1055","want","ascent",9,2,-99,-99,NA,NA,0,1,-99,-99
"1055","capital","figure",10,2,-99,-99,NA,NA,1,0,-99,-99
"1055","bias","sirloin",11,2,-99,-99,NA,NA,0,1,-99,-99
"1055","find","clown",12,2,-99,-99,NA,NA,0,1,-99,-99
"1055","caring","skirt",13,2,-99,-99,NA,NA,0,0,-99,-99
"1055","anger","decay",14,2,-99,-99,NA,NA,1,0,-99,-99
"1055","need","faucet",15,2,-99,-99,NA,NA,0,0,-99,-99
"1055","bleach","ruin",16,2,-99,-99,NA,NA,1,1,-99,-99
"1055","collect","loyalty",17,2,-99,-99,NA,NA,0,1,-99,-99
"1055","nerve","bumper",18,2,-99,-99,NA,NA,0,1,-99,-99
"1055","biology","temper",19,2,-99,-99,NA,NA,0,0,-99,-99
"1055","plant","worm",20,2,-99,-99,NA,NA,1,0,-99,-99
"1055","fee","chowder",21,2,-99,-99,NA,NA,0,0,-99,-99
"1055","replace","roach",22,2,-99,-99,NA,NA,1,1,-99,-99
"1055","grip","beach",23,2,-99,-99,NA,NA,0,1,-99,-99
"1055","pork","emperor",24,2,-99,-99,NA,NA,1,0,-99,-99
"1055","fan","feature",25,2,-99,-99,NA,NA,0,1,-99,-99
"1055","glue","force",26,2,-99,-99,NA,NA,0,0,-99,-99
"1055","shrink","mafia",27,2,-99,-99,NA,NA,1,1,-99,-99
"1055","port","cinema",28,2,-99,-99,NA,NA,1,0,-99,-99
"1055","process","joker",29,2,-99,-99,NA,NA,1,1,-99,-99
"1055","link","crisis",30,2,-99,-99,NA,NA,0,1,-99,-99
"1055","forest","knob",31,2,-99,-99,NA,NA,1,1,-99,-99
"1055","mill","feast",32,2,-99,-99,NA,NA,1,0,-99,-99
"1055","banner","glide",33,2,-99,-99,NA,NA,0,0,-99,-99
"1055","smother","surgery",34,2,-99,-99,NA,NA,0,0,-99,-99
"1055","remind","foam",35,2,-99,-99,NA,NA,1,1,-99,-99
"1055","pea","bathtub",36,2,-99,-99,NA,NA,0,1,-99,-99
"1055","rock","milk",37,2,-99,-99,NA,NA,1,1,-99,-99
"1055","prison","loaf",38,2,-99,-99,NA,NA,1,0,-99,-99
"1055","copy","bedroom",39,2,-99,-99,NA,NA,1,1,-99,-99
"1055","knock","otter",40,2,-99,-99,NA,NA,0,0,-99,-99
"1055","anger","decay",1,3,52,13.313,32,0.8,1,0,0,13.139
"1055","date","laugh",2,3,67,9.719,34,0.85,1,0,0,1.797
"1055","calf","annoy",3,3,49,45.151,31,0.775,1,0,0,1.206
"1055","collect","loyalty",4,3,34,4.763,25,0.625,0,1,0,2.328
"1055","bias","sirloin",5,3,30,10.637,22,0.55,0,1,0,0.997
"1055","prison","loaf",6,3,71,7.157,35,0.875,1,0,0,1.117
"1055","mill","feast",7,3,37,4.278,29,0.725,1,0,0,2.749
"1055","grip","beach",8,3,32,12.78,24,0.6,0,1,0,1.301
"1055","link","crisis",9,3,18,2.845,11,0.275,0,1,0,1.533
"1055","want","ascent",10,3,26,9.916,19,0.475,0,1,0,1.318
"1055","capital","figure",11,3,73,4.04,36,0.9,1,0,0,0.933
"1055","risk","zero",12,3,36,3.508,27,0.675,0,1,0,1.07
"1055","port","cinema",13,3,78,5.076,38,0.95,1,0,0,1.23
"1055","visit","glove",14,3,36,3.277,28,0.7,1,0,0,0.799
"1055","nerve","bumper",15,3,22,4.171,15,0.375,0,1,0,5.869
"1055","pea","bathtub",16,3,22,3.991,16,0.4,0,1,0,1.604
"1055","find","clown",17,3,16,3.376,5,0.125,0,1,0,8.109
"1055","pork","emperor",18,3,74,3.252,37,0.925,1,0,0,0.872
"1055","fan","feature",19,3,34,3.077,26,0.65,0,1,0,7.214
"1055","plant","worm",20,3,79,2.814,39,0.975,1,0,0,1.06
"1055","rock","milk",21,3,58,3.087,33,0.825,1,1,1,4.216
"1055","forest","knob",22,3,26,4.91,20,0.5,1,1,1,3.526
"1055","bleach","ruin",23,3,100,6.454,40,1,1,1,1,1.341
"1055","bullet","walkway",24,3,20,12.573,13,0.325,1,1,1,1.198
"1055","replace","roach",25,3,27,4.733,21,0.525,1,1,1,1.022
"1055","remind","foam",26,3,20,3.116,14,0.35,1,1,1,1.624
"1055","chicken","beet",27,3,41,5.526,30,0.75,1,1,1,1.741
"1055","bacon","feud",28,3,17,4.671,9,0.225,0,0,1,2.128
"1055","banner","glide",29,3,11,17.67,1,0.025,0,0,1,3.811
"1055","caring","skirt",30,3,11,4.035,2,0.05,0,0,1,6.829
"1055","process","joker",31,3,25,3.415,18,0.45,1,1,1,1.566
"1055","knock","otter",32,3,18,3.293,12,0.3,0,0,1,1.526
"1055","shrink","mafia",33,3,31,2.876,23,0.575,1,1,1,7.255
"1055","need","faucet",34,3,16,3.503,6,0.15,0,0,1,1.135
"1055","glue","force",35,3,15,4.11,3,0.075,0,0,1,7.631
"1055","climax","saucer",36,3,15,8.309,4,0.1,0,0,1,1.39
"1055","copy","bedroom",37,3,22,3.797,17,0.425,1,1,1,1.23
"1055","biology","temper",38,3,17,3.02,10,0.25,0,0,1,8.072
"1055","smother","surgery",39,3,16,8.245,7,0.175,0,0,1,1.045
"1055","fee","chowder",40,3,16,2.743,8,0.2,0,0,1,1.31
"1262","pork","emperor",1,1,-99,-99,NA,NA,1,1,-99,-99
"1262","port","cinema",2,1,-99,-99,NA,NA,1,1,-99,-99
"1262","nerve","bumper",3,1,-99,-99,NA,NA,1,0,-99,-99
"1262","mill","feast",4,1,-99,-99,NA,NA,0,1,-99,-99
"1262","fee","chowder",5,1,-99,-99,NA,NA,0,0,-99,-99
"1262","visit","glove",6,1,-99,-99,NA,NA,0,0,-99,-99
"1262","forest","knob",7,1,-99,-99,NA,NA,0,0,-99,-99
"1262","bacon","feud",8,1,-99,-99,NA,NA,0,0,-99,-99
"1262","climax","saucer",9,1,-99,-99,NA,NA,0,1,-99,-99
"1262","caring","skirt",10,1,-99,-99,NA,NA,1,1,-99,-99
"1262","knock","otter",11,1,-99,-99,NA,NA,1,1,-99,-99
"1262","shrink","mafia",12,1,-99,-99,NA,NA,0,1,-99,-99
"1262","capital","figure",13,1,-99,-99,NA,NA,0,0,-99,-99
"1262","want","ascent",14,1,-99,-99,NA,NA,1,0,-99,-99
"1262","bias","sirloin",15,1,-99,-99,NA,NA,0,0,-99,-99
"1262","prison","loaf",16,1,-99,-99,NA,NA,1,1,-99,-99
"1262","banner","glide",17,1,-99,-99,NA,NA,1,1,-99,-99
"1262","smother","surgery",18,1,-99,-99,NA,NA,0,1,-99,-99
"1262","calf","annoy",19,1,-99,-99,NA,NA,0,1,-99,-99
"1262","grip","beach",20,1,-99,-99,NA,NA,0,0,-99,-99
"1262","link","crisis",21,1,-99,-99,NA,NA,0,1,-99,-99
"1262","replace","roach",22,1,-99,-99,NA,NA,0,0,-99,-99
"1262","date","laugh",23,1,-99,-99,NA,NA,0,0,-99,-99
"1262","rock","milk",24,1,-99,-99,NA,NA,1,0,-99,-99
"1262","pea","bathtub",25,1,-99,-99,NA,NA,0,1,-99,-99
"1262","copy","bedroom",26,1,-99,-99,NA,NA,1,0,-99,-99
"1262","anger","decay",27,1,-99,-99,NA,NA,1,0,-99,-99
"1262","fan","feature",28,1,-99,-99,NA,NA,1,0,-99,-99
"1262","biology","temper",29,1,-99,-99,NA,NA,1,0,-99,-99
"1262","glue","force",30,1,-99,-99,NA,NA,0,1,-99,-99
"1262","find","clown",31,1,-99,-99,NA,NA,1,0,-99,-99
"1262","risk","zero",32,1,-99,-99,NA,NA,1,0,-99,-99
"1262","bullet","walkway",33,1,-99,-99,NA,NA,1,1,-99,-99
"1262","plant","worm",34,1,-99,-99,NA,NA,0,1,-99,-99
"1262","bleach","ruin",35,1,-99,-99,NA,NA,0,1,-99,-99
"1262","chicken","beet",36,1,-99,-99,NA,NA,0,0,-99,-99
"1262","need","faucet",37,1,-99,-99,NA,NA,1,1,-99,-99
"1262","remind","foam",38,1,-99,-99,NA,NA,1,1,-99,-99
"1262","process","joker",39,1,-99,-99,NA,NA,1,0,-99,-99
"1262","collect","loyalty",40,1,-99,-99,NA,NA,1,1,-99,-99
"1262","nerve","bumper",1,2,-99,-99,NA,NA,1,0,-99,-99
"1262","want","ascent",2,2,-99,-99,NA,NA,1,0,-99,-99
"1262","chicken","beet",3,2,-99,-99,NA,NA,0,0,-99,-99
"1262","forest","knob",4,2,-99,-99,NA,NA,0,0,-99,-99
"1262","plant","worm",5,2,-99,-99,NA,NA,0,1,-99,-99
"1262","smother","surgery",6,2,-99,-99,NA,NA,0,1,-99,-99
"1262","bullet","walkway",7,2,-99,-99,NA,NA,1,1,-99,-99
"1262","rock","milk",8,2,-99,-99,NA,NA,1,0,-99,-99
"1262","risk","zero",9,2,-99,-99,NA,NA,1,0,-99,-99
"1262","biology","temper",10,2,-99,-99,NA,NA,1,0,-99,-99
"1262","fee","chowder",11,2,-99,-99,NA,NA,0,0,-99,-99
"1262","need","faucet",12,2,-99,-99,NA,NA,1,1,-99,-99
"1262","process","joker",13,2,-99,-99,NA,NA,1,0,-99,-99
"1262","pork","emperor",14,2,-99,-99,NA,NA,1,1,-99,-99
"1262","caring","skirt",15,2,-99,-99,NA,NA,1,1,-99,-99
"1262","shrink","mafia",16,2,-99,-99,NA,NA,0,1,-99,-99
"1262","mill","feast",17,2,-99,-99,NA,NA,0,1,-99,-99
"1262","glue","force",18,2,-99,-99,NA,NA,0,1,-99,-99
"1262","anger","decay",19,2,-99,-99,NA,NA,1,0,-99,-99
"1262","collect","loyalty",20,2,-99,-99,NA,NA,1,1,-99,-99
"1262","bleach","ruin",21,2,-99,-99,NA,NA,0,1,-99,-99
"1262","prison","loaf",22,2,-99,-99,NA,NA,1,1,-99,-99
"1262","climax","saucer",23,2,-99,-99,NA,NA,0,1,-99,-99
"1262","fan","feature",24,2,-99,-99,NA,NA,1,0,-99,-99
"1262","bias","sirloin",25,2,-99,-99,NA,NA,0,0,-99,-99
"1262","banner","glide",26,2,-99,-99,NA,NA,1,1,-99,-99
"1262","replace","roach",27,2,-99,-99,NA,NA,0,0,-99,-99
"1262","capital","figure",28,2,-99,-99,NA,NA,0,0,-99,-99
"1262","date","laugh",29,2,-99,-99,NA,NA,0,0,-99,-99
"1262","port","cinema",30,2,-99,-99,NA,NA,1,1,-99,-99
"1262","pea","bathtub",31,2,-99,-99,NA,NA,0,1,-99,-99
"1262","remind","foam",32,2,-99,-99,NA,NA,1,1,-99,-99
"1262","copy","bedroom",33,2,-99,-99,NA,NA,1,0,-99,-99
"1262","grip","beach",34,2,-99,-99,NA,NA,0,0,-99,-99
"1262","calf","annoy",35,2,-99,-99,NA,NA,0,1,-99,-99
"1262","visit","glove",36,2,-99,-99,NA,NA,0,0,-99,-99
"1262","bacon","feud",37,2,-99,-99,NA,NA,0,0,-99,-99
"1262","find","clown",38,2,-99,-99,NA,NA,1,0,-99,-99
"1262","link","crisis",39,2,-99,-99,NA,NA,0,1,-99,-99
"1262","knock","otter",40,2,-99,-99,NA,NA,1,1,-99,-99
"1262","bias","sirloin",1,3,70,7.989,30,0.75,0,0,1,41.024
"1262","smother","surgery",2,3,63,35.973,24,0.6,0,1,0,6.75
"1262","date","laugh",3,3,81,20.151,35,0.875,0,0,1,6.263
"1262","chicken","beet",4,3,85,30.399,37,0.925,0,0,1,5.823
"1262","knock","otter",5,3,59,81.104,20,0.5,1,1,1,2.188
"1262","collect","loyalty",6,3,36,45.272,10,0.25,1,1,1,1.31
"1262","prison","loaf",7,3,60,62.735,22,0.55,1,1,1,1.455
"1262","fee","chowder",8,3,81,53.311,36,0.9,0,0,1,0.982
"1262","capital","figure",9,3,94,6.737,39,0.975,0,0,1,1.165
"1262","need","faucet",10,3,32,23.847,6,0.15,1,1,1,1.095
"1262","bullet","walkway",11,3,68,21.711,29,0.725,1,1,1,1.133
"1262","grip","beach",12,3,71,2.375,31,0.775,0,0,1,1.623
"1262","replace","roach",13,3,71,4.831,32,0.8,0,0,1,1.35
"1262","bacon","feud",14,3,95,38.583,40,1,0,0,1,1.2
"1262","port","cinema",15,3,8,52.815,2,0.05,1,1,1,1.334
"1262","banner","glide",16,3,4,34.135,1,0.025,1,1,1,1.111
"1262","forest","knob",17,3,85,35.635,38,0.95,0,0,1,1.051
"1262","visit","glove",18,3,80,11.519,34,0.85,0,0,1,1.207
"1262","pork","emperor",19,3,57,18.463,15,0.375,1,1,1,0.935
"1262","remind","foam",20,3,54,41.487,14,0.35,1,1,1,1.087
"1262","caring","skirt",21,3,21,38.534,4,0.1,1,1,1,1.007
"1262","climax","saucer",22,3,60,11.022,23,0.575,0,1,0,3.54
"1262","link","crisis",23,3,79,4.929,33,0.825,0,1,0,3.546
"1262","want","ascent",24,3,12,35.108,3,0.075,1,0,0,1.15
"1262","copy","bedroom",25,3,58,13.359,17,0.425,1,0,0,0.816
"1262","shrink","mafia",26,3,63,9.656,25,0.625,0,1,0,0.855
"1262","fan","feature",27,3,33,23.552,7,0.175,1,0,0,1.087
"1262","process","joker",28,3,41,17.932,11,0.275,1,0,0,1.022
"1262","rock","milk",29,3,57,11.335,16,0.4,1,0,0,1.063
"1262","find","clown",30,3,53,12.097,13,0.325,1,0,0,1.26
"1262","glue","force",31,3,59,2.976,21,0.525,0,1,0,0.792
"1262","pea","bathtub",32,3,63,6.447,26,0.65,0,1,0,0.878
"1262","risk","zero",33,3,26,26.152,5,0.125,1,0,0,0.895
"1262","biology","temper",34,3,33,19.879,8,0.2,1,0,0,0.782
"1262","bleach","ruin",35,3,66,2.982,28,0.7,0,1,0,1.175
"1262","plant","worm",36,3,65,11.574,27,0.675,0,1,0,0.903
"1262","calf","annoy",37,3,58,4.342,18,0.45,0,1,0,0.951
"1262","nerve","bumper",38,3,35,3.752,9,0.225,1,0,0,1.038
"1262","anger","decay",39,3,41,3.208,12,0.3,1,0,0,0.798
"1262","mill","feast",40,3,58,3.285,19,0.475,0,1,0,0.977
"1265","smother","surgery",1,1,-99,-99,NA,NA,1,1,-99,-99
"1265","forest","knob",2,1,-99,-99,NA,NA,1,0,-99,-99
"1265","visit","glove",3,1,-99,-99,NA,NA,0,0,-99,-99
"1265","link","crisis",4,1,-99,-99,NA,NA,0,1,-99,-99
"1265","anger","decay",5,1,-99,-99,NA,NA,0,0,-99,-99
"1265","chicken","beet",6,1,-99,-99,NA,NA,1,1,-99,-99
"1265","mill","feast",7,1,-99,-99,NA,NA,0,0,-99,-99
"1265","replace","roach",8,1,-99,-99,NA,NA,0,0,-99,-99
"1265","biology","temper",9,1,-99,-99,NA,NA,0,1,-99,-99
"1265","find","clown",10,1,-99,-99,NA,NA,0,1,-99,-99
"1265","bullet","walkway",11,1,-99,-99,NA,NA,0,1,-99,-99
"1265","glue","force",12,1,-99,-99,NA,NA,0,0,-99,-99
"1265","process","joker",13,1,-99,-99,NA,NA,1,1,-99,-99
"1265","risk","zero",14,1,-99,-99,NA,NA,1,0,-99,-99
"1265","calf","annoy",15,1,-99,-99,NA,NA,0,0,-99,-99
"1265","prison","loaf",16,1,-99,-99,NA,NA,1,1,-99,-99
"1265","grip","beach",17,1,-99,-99,NA,NA,1,0,-99,-99
"1265","banner","glide",18,1,-99,-99,NA,NA,0,1,-99,-99
"1265","collect","loyalty",19,1,-99,-99,NA,NA,1,0,-99,-99
"1265","fan","feature",20,1,-99,-99,NA,NA,0,1,-99,-99
"1265","plant","worm",21,1,-99,-99,NA,NA,0,1,-99,-99
"1265","port","cinema",22,1,-99,-99,NA,NA,1,0,-99,-99
"1265","pork","emperor",23,1,-99,-99,NA,NA,0,0,-99,-99
"1265","knock","otter",24,1,-99,-99,NA,NA,1,0,-99,-99
"1265","copy","bedroom",25,1,-99,-99,NA,NA,1,1,-99,-99
"1265","fee","chowder",26,1,-99,-99,NA,NA,0,0,-99,-99
"1265","remind","foam",27,1,-99,-99,NA,NA,1,1,-99,-99
"1265","shrink","mafia",28,1,-99,-99,NA,NA,1,0,-99,-99
"1265","bacon","feud",29,1,-99,-99,NA,NA,1,1,-99,-99
"1265","caring","skirt",30,1,-99,-99,NA,NA,1,1,-99,-99
"1265","want","ascent",31,1,-99,-99,NA,NA,0,1,-99,-99
"1265","need","faucet",32,1,-99,-99,NA,NA,1,1,-99,-99
"1265","climax","saucer",33,1,-99,-99,NA,NA,1,0,-99,-99
"1265","rock","milk",34,1,-99,-99,NA,NA,0,0,-99,-99
"1265","bias","sirloin",35,1,-99,-99,NA,NA,0,1,-99,-99
"1265","capital","figure",36,1,-99,-99,NA,NA,0,1,-99,-99
"1265","bleach","ruin",37,1,-99,-99,NA,NA,0,0,-99,-99
"1265","pea","bathtub",38,1,-99,-99,NA,NA,1,0,-99,-99
"1265","date","laugh",39,1,-99,-99,NA,NA,1,1,-99,-99
"1265","nerve","bumper",40,1,-99,-99,NA,NA,1,0,-99,-99
"1265","forest","knob",1,2,-99,-99,NA,NA,1,0,-99,-99
"1265","bullet","walkway",2,2,-99,-99,NA,NA,0,1,-99,-99
"1265","prison","loaf",3,2,-99,-99,NA,NA,1,1,-99,-99
"1265","calf","annoy",4,2,-99,-99,NA,NA,0,0,-99,-99
"1265","bleach","ruin",5,2,-99,-99,NA,NA,0,0,-99,-99
"1265","collect","loyalty",6,2,-99,-99,NA,NA,1,0,-99,-99
"1265","pea","bathtub",7,2,-99,-99,NA,NA,1,0,-99,-99
"1265","visit","glove",8,2,-99,-99,NA,NA,0,0,-99,-99
"1265","link","crisis",9,2,-99,-99,NA,NA,0,1,-99,-99
"1265","fan","feature",10,2,-99,-99,NA,NA,0,1,-99,-99
"1265","shrink","mafia",11,2,-99,-99,NA,NA,1,0,-99,-99
"1265","remind","foam",12,2,-99,-99,NA,NA,1,1,-99,-99
"1265","process","joker",13,2,-99,-99,NA,NA,1,1,-99,-99
"1265","knock","otter",14,2,-99,-99,NA,NA,1,0,-99,-99
"1265","chicken","beet",15,2,-99,-99,NA,NA,1,1,-99,-99
"1265","smother","surgery",16,2,-99,-99,NA,NA,1,1,-99,-99
"1265","bias","sirloin",17,2,-99,-99,NA,NA,0,1,-99,-99
"1265","mill","feast",18,2,-99,-99,NA,NA,0,0,-99,-99
"1265","plant","worm",19,2,-99,-99,NA,NA,0,1,-99,-99
"1265","nerve","bumper",20,2,-99,-99,NA,NA,1,0,-99,-99
"1265","pork","emperor",21,2,-99,-99,NA,NA,0,0,-99,-99
"1265","fee","chowder",22,2,-99,-99,NA,NA,0,0,-99,-99
"1265","copy","bedroom",23,2,-99,-99,NA,NA,1,1,-99,-99
"1265","capital","figure",24,2,-99,-99,NA,NA,0,1,-99,-99
"1265","bacon","feud",25,2,-99,-99,NA,NA,1,1,-99,-99
"1265","need","faucet",26,2,-99,-99,NA,NA,1,1,-99,-99
"1265","anger","decay",27,2,-99,-99,NA,NA,0,0,-99,-99
"1265","caring","skirt",28,2,-99,-99,NA,NA,1,1,-99,-99
"1265","date","laugh",29,2,-99,-99,NA,NA,1,1,-99,-99
"1265","grip","beach",30,2,-99,-99,NA,NA,1,0,-99,-99
"1265","biology","temper",31,2,-99,-99,NA,NA,0,1,-99,-99
"1265","port","cinema",32,2,-99,-99,NA,NA,1,0,-99,-99
"1265","find","clown",33,2,-99,-99,NA,NA,0,1,-99,-99
"1265","banner","glide",34,2,-99,-99,NA,NA,0,1,-99,-99
"1265","want","ascent",35,2,-99,-99,NA,NA,0,1,-99,-99
"1265","glue","force",36,2,-99,-99,NA,NA,0,0,-99,-99
"1265","risk","zero",37,2,-99,-99,NA,NA,1,0,-99,-99
"1265","climax","saucer",38,2,-99,-99,NA,NA,1,0,-99,-99
"1265","rock","milk",39,2,-99,-99,NA,NA,0,0,-99,-99
"1265","replace","roach",40,2,-99,-99,NA,NA,0,0,-99,-99
"1265","remind","foam",1,3,19,4.504,36,0.9,1,1,1,9.993
"1265","calf","annoy",2,3,1,4.852,1,0.025,0,0,1,3.915
"1265","pork","emperor",3,3,1,3.739,2,0.05,0,0,1,2.114
"1265","capital","figure",4,3,1,3.409,3,0.075,0,1,0,0.913
"1265","banner","glide",5,3,1,3.522,4,0.1,0,1,0,1.145
"1265","want","ascent",6,3,1,2.669,5,0.125,0,1,0,1.03
"1265","shrink","mafia",7,3,73,5.382,37,0.925,1,0,0,1.414
"1265","fan","feature",8,3,1,2.909,6,0.15,0,1,0,1.02
"1265","plant","worm",9,3,1,2.646,7,0.175,0,1,0,0.933
"1265","pea","bathtub",10,3,100,4.229,39,0.975,1,0,0,1.135
"1265","bullet","walkway",11,3,1,2.556,8,0.2,0,1,0,0.927
"1265","biology","temper",12,3,1,2.307,9,0.225,0,1,0,0.927
"1265","mill","feast",13,3,1,2.719,10,0.25,0,0,1,0.686
"1265","rock","milk",14,3,1,2.757,11,0.275,0,0,1,0.77
"1265","bias","sirloin",15,3,1,3.122,12,0.3,0,1,0,0.938
"1265","link","crisis",16,3,1,2.284,13,0.325,0,1,0,0.874
"1265","find","clown",17,3,1,2.254,14,0.35,0,1,0,0.839
"1265","climax","saucer",18,3,1,3.096,15,0.375,1,0,0,1.074
"1265","collect","loyalty",19,3,1,2.204,16,0.4,1,0,0,0.913
"1265","port","cinema",20,3,4,2.764,35,0.875,1,0,0,0.806
"1265","knock","otter",21,3,1,2.182,17,0.425,1,0,0,0.742
"1265","grip","beach",22,3,1,2.149,18,0.45,1,0,0,0.735
"1265","forest","knob",23,3,1,2.133,19,0.475,1,0,0,0.75
"1265","nerve","bumper",24,3,1,2.815,20,0.5,1,0,0,0.718
"1265","risk","zero",25,3,1,2.386,21,0.525,1,0,0,0.956
"1265","anger","decay",26,3,1,2.854,22,0.55,0,0,1,1.382
"1265","replace","roach",27,3,1,2.424,23,0.575,0,0,1,1.718
"1265","bleach","ruin",28,3,1,2.317,24,0.6,0,0,1,0.846
"1265","fee","chowder",29,3,1,3.174,25,0.625,0,0,1,0.718
"1265","visit","glove",30,3,1,2.166,26,0.65,0,0,1,0.678
"1265","bacon","feud",31,3,100,5.655,40,1,1,1,1,0.804
"1265","glue","force",32,3,1,2.499,27,0.675,0,0,1,0.797
"1265","prison","loaf",33,3,1,2.004,28,0.7,1,1,1,0.733
"1265","smother","surgery",34,3,1,2.808,29,0.725,1,1,1,1.481
"1265","copy","bedroom",35,3,1,2.225,30,0.75,1,1,1,0.71
"1265","need","faucet",36,3,1,2.263,31,0.775,1,1,1,0.661
"1265","date","laugh",37,3,1,1.887,32,0.8,1,1,1,0.73
"1265","caring","skirt",38,3,1,2.101,33,0.825,1,1,1,1.053
"1265","chicken","beet",39,3,99,2.551,38,0.95,1,1,1,0.749
"1265","process","joker",40,3,1,2.334,34,0.85,1,1,1,0.698
"1342","calf","annoy",1,1,-99,-99,NA,NA,1,0,-99,-99
"1342","chicken","beet",2,1,-99,-99,NA,NA,1,1,-99,-99
"1342","forest","knob",3,1,-99,-99,NA,NA,0,0,-99,-99
"1342","bleach","ruin",4,1,-99,-99,NA,NA,0,1,-99,-99
"1342","visit","glove",5,1,-99,-99,NA,NA,1,1,-99,-99
"1342","rock","milk",6,1,-99,-99,NA,NA,1,1,-99,-99
"1342","copy","bedroom",7,1,-99,-99,NA,NA,1,0,-99,-99
"1342","plant","worm",8,1,-99,-99,NA,NA,0,0,-99,-99
"1342","glue","force",9,1,-99,-99,NA,NA,0,1,-99,-99
"1342","smother","surgery",10,1,-99,-99,NA,NA,0,0,-99,-99
"1342","risk","zero",11,1,-99,-99,NA,NA,0,0,-99,-99
"1342","replace","roach",12,1,-99,-99,NA,NA,0,0,-99,-99
"1342","remind","foam",13,1,-99,-99,NA,NA,0,0,-99,-99
"1342","want","ascent",14,1,-99,-99,NA,NA,0,0,-99,-99
"1342","shrink","mafia",15,1,-99,-99,NA,NA,1,1,-99,-99
"1342","bias","sirloin",16,1,-99,-99,NA,NA,1,0,-99,-99
"1342","grip","beach",17,1,-99,-99,NA,NA,1,0,-99,-99
"1342","fee","chowder",18,1,-99,-99,NA,NA,1,1,-99,-99
"1342","process","joker",19,1,-99,-99,NA,NA,1,1,-99,-99
"1342","pork","emperor",20,1,-99,-99,NA,NA,1,1,-99,-99
"1342","date","laugh",21,1,-99,-99,NA,NA,0,0,-99,-99
"1342","find","clown",22,1,-99,-99,NA,NA,0,1,-99,-99
"1342","climax","saucer",23,1,-99,-99,NA,NA,0,1,-99,-99
"1342","nerve","bumper",24,1,-99,-99,NA,NA,1,1,-99,-99
"1342","banner","glide",25,1,-99,-99,NA,NA,0,1,-99,-99
"1342","collect","loyalty",26,1,-99,-99,NA,NA,0,1,-99,-99
"1342","port","cinema",27,1,-99,-99,NA,NA,1,0,-99,-99
"1342","bullet","walkway",28,1,-99,-99,NA,NA,1,1,-99,-99
"1342","caring","skirt",29,1,-99,-99,NA,NA,1,0,-99,-99
"1342","pea","bathtub",30,1,-99,-99,NA,NA,0,1,-99,-99
"1342","fan","feature",31,1,-99,-99,NA,NA,0,0,-99,-99
"1342","knock","otter",32,1,-99,-99,NA,NA,1,0,-99,-99
"1342","prison","loaf",33,1,-99,-99,NA,NA,1,0,-99,-99
"1342","capital","figure",34,1,-99,-99,NA,NA,0,0,-99,-99
"1342","link","crisis",35,1,-99,-99,NA,NA,1,0,-99,-99
"1342","anger","decay",36,1,-99,-99,NA,NA,0,1,-99,-99
"1342","biology","temper",37,1,-99,-99,NA,NA,0,1,-99,-99
"1342","mill","feast",38,1,-99,-99,NA,NA,1,1,-99,-99
"1342","bacon","feud",39,1,-99,-99,NA,NA,1,0,-99,-99
"1342","need","faucet",40,1,-99,-99,NA,NA,0,1,-99,-99
"1342","calf","annoy",1,2,-99,-99,NA,NA,1,0,-99,-99
"1342","collect","loyalty",2,2,-99,-99,NA,NA,0,1,-99,-99
"1342","bleach","ruin",3,2,-99,-99,NA,NA,0,1,-99,-99
"1342","nerve","bumper",4,2,-99,-99,NA,NA,1,1,-99,-99
"1342","bacon","feud",5,2,-99,-99,NA,NA,1,0,-99,-99
"1342","pork","emperor",6,2,-99,-99,NA,NA,1,1,-99,-99
"1342","plant","worm",7,2,-99,-99,NA,NA,0,0,-99,-99
"1342","banner","glide",8,2,-99,-99,NA,NA,0,1,-99,-99
"1342","climax","saucer",9,2,-99,-99,NA,NA,0,1,-99,-99
"1342","pea","bathtub",10,2,-99,-99,NA,NA,0,1,-99,-99
"1342","port","cinema",11,2,-99,-99,NA,NA,1,0,-99,-99
"1342","link","crisis",12,2,-99,-99,NA,NA,1,0,-99,-99
"1342","biology","temper",13,2,-99,-99,NA,NA,0,1,-99,-99
"1342","glue","force",14,2,-99,-99,NA,NA,0,1,-99,-99
"1342","date","laugh",15,2,-99,-99,NA,NA,0,0,-99,-99
"1342","fee","chowder",16,2,-99,-99,NA,NA,1,1,-99,-99
"1342","process","joker",17,2,-99,-99,NA,NA,1,1,-99,-99
"1342","capital","figure",18,2,-99,-99,NA,NA,0,0,-99,-99
"1342","mill","feast",19,2,-99,-99,NA,NA,1,1,-99,-99
"1342","caring","skirt",20,2,-99,-99,NA,NA,1,0,-99,-99
"1342","smother","surgery",21,2,-99,-99,NA,NA,0,0,-99,-99
"1342","risk","zero",22,2,-99,-99,NA,NA,0,0,-99,-99
"1342","want","ascent",23,2,-99,-99,NA,NA,0,0,-99,-99
"1342","replace","roach",24,2,-99,-99,NA,NA,0,0,-99,-99
"1342","find","clown",25,2,-99,-99,NA,NA,0,1,-99,-99
"1342","need","faucet",26,2,-99,-99,NA,NA,0,1,-99,-99
"1342","shrink","mafia",27,2,-99,-99,NA,NA,1,1,-99,-99
"1342","rock","milk",28,2,-99,-99,NA,NA,1,1,-99,-99
"1342","bias","sirloin",29,2,-99,-99,NA,NA,1,0,-99,-99
"1342","copy","bedroom",30,2,-99,-99,NA,NA,1,0,-99,-99
"1342","anger","decay",31,2,-99,-99,NA,NA,0,1,-99,-99
"1342","knock","otter",32,2,-99,-99,NA,NA,1,0,-99,-99
"1342","prison","loaf",33,2,-99,-99,NA,NA,1,0,-99,-99
"1342","forest","knob",34,2,-99,-99,NA,NA,0,0,-99,-99
"1342","bullet","walkway",35,2,-99,-99,NA,NA,1,1,-99,-99
"1342","grip","beach",36,2,-99,-99,NA,NA,1,0,-99,-99
"1342","chicken","beet",37,2,-99,-99,NA,NA,1,1,-99,-99
"1342","visit","glove",38,2,-99,-99,NA,NA,1,1,-99,-99
"1342","fan","feature",39,2,-99,-99,NA,NA,0,0,-99,-99
"1342","remind","foam",40,2,-99,-99,NA,NA,0,0,-99,-99
"1342","pea","bathtub",1,3,10,14.034,13,0.325,0,1,0,7.106
"1342","glue","force",2,3,100,54.637,32,0.8,0,1,0,8.054
"1342","process","joker",3,3,35,44.049,19,0.475,1,1,1,16.238
"1342","climax","saucer",4,3,99,26.856,31,0.775,0,1,0,3.283
"1342","find","clown",5,3,26,4.507,16,0.4,0,1,0,4.85
"1342","calf","annoy",6,3,1,7.582,1,0.025,1,0,0,1.235
"1342","want","ascent",7,3,100,66.529,33,0.825,0,0,1,1.377
"1342","replace","roach",8,3,100,4.707,34,0.85,0,0,1,1.124
"1342","banner","glide",9,3,9,45.314,12,0.3,0,1,0,1.002
"1342","remind","foam",10,3,100,14.57,35,0.875,0,0,1,2.549
"1342","mill","feast",11,3,77,97.411,24,0.6,1,1,1,0.931
"1342","risk","zero",12,3,98,4.579,30,0.75,0,0,1,1.21
"1342","forest","knob",13,3,100,3.878,36,0.9,0,0,1,0.998
"1342","plant","worm",14,3,100,14.016,37,0.925,0,0,1,1.237
"1342","collect","loyalty",15,3,24,2.692,15,0.375,0,1,0,0.908
"1342","smother","surgery",16,3,100,4.108,38,0.95,0,0,1,1.264
"1342","date","laugh",17,3,100,3.153,39,0.975,0,0,1,1.365
"1342","grip","beach",18,3,7,2.824,11,0.275,1,0,0,0.796
"1342","biology","temper",19,3,32,35.145,18,0.45,0,1,0,0.952
"1342","fan","feature",20,3,100,2.266,40,1,0,0,1,0.785
"1342","copy","bedroom",21,3,5,2.741,10,0.25,1,0,0,0.695
"1342","need","faucet",22,3,14,2.85,14,0.35,0,1,0,0.738
"1342","bleach","ruin",23,3,41,6.991,20,0.5,0,1,0,1.459
"1342","visit","glove",24,3,59,43.988,21,0.525,1,1,1,1.211
"1342","shrink","mafia",25,3,90,12.03,28,0.7,1,1,1,0.767
"1342","anger","decay",26,3,29,2.546,17,0.425,0,1,0,0.896
"1342","port","cinema",27,3,1,2.93,2,0.05,1,0,0,1.198
"1342","link","crisis",28,3,1,2.664,3,0.075,1,0,0,0.831
"1342","pork","emperor",29,3,86,8.033,26,0.65,1,1,1,0.787
"1342","prison","loaf",30,3,2,2.815,9,0.225,1,0,0,0.729
"1342","rock","milk",31,3,82,3.449,25,0.625,1,1,1,0.917
"1342","fee","chowder",32,3,73,10.701,23,0.575,1,1,1,1.069
"1342","caring","skirt",33,3,1,2.704,4,0.1,1,0,0,0.809
"1342","bias","sirloin",34,3,1,2.297,5,0.125,1,0,0,0.821
"1342","bullet","walkway",35,3,62,2.109,22,0.55,1,1,1,0.818
"1342","chicken","beet",36,3,86,2.474,27,0.675,1,1,1,0.866
"1342","knock","otter",37,3,1,2.721,6,0.15,1,0,0,0.657
"1342","capital","figure",38,3,90,2.94,29,0.725,0,0,1,0.85
"1342","bacon","feud",39,3,1,2.224,7,0.175,1,0,0,0.774
"1342","nerve","bumper",40,3,1,2.464,8,0.2,1,1,1,1.266
"1368","bleach","ruin",1,1,-99,-99,NA,NA,0,0,-99,-99
"1368","rock","milk",2,1,-99,-99,NA,NA,1,0,-99,-99
"1368","calf","annoy",3,1,-99,-99,NA,NA,0,0,-99,-99
"1368","anger","decay",4,1,-99,-99,NA,NA,1,1,-99,-99
"1368","port","cinema",5,1,-99,-99,NA,NA,1,1,-99,-99
"1368","plant","worm",6,1,-99,-99,NA,NA,0,0,-99,-99
"1368","shrink","mafia",7,1,-99,-99,NA,NA,0,0,-99,-99
"1368","caring","skirt",8,1,-99,-99,NA,NA,1,1,-99,-99
"1368","bias","sirloin",9,1,-99,-99,NA,NA,0,1,-99,-99
"1368","pork","emperor",10,1,-99,-99,NA,NA,1,1,-99,-99
"1368","chicken","beet",11,1,-99,-99,NA,NA,1,1,-99,-99
"1368","find","clown",12,1,-99,-99,NA,NA,0,1,-99,-99
"1368","fee","chowder",13,1,-99,-99,NA,NA,1,0,-99,-99
"1368","forest","knob",14,1,-99,-99,NA,NA,0,1,-99,-99
"1368","prison","loaf",15,1,-99,-99,NA,NA,0,0,-99,-99
"1368","remind","foam",16,1,-99,-99,NA,NA,0,1,-99,-99
"1368","nerve","bumper",17,1,-99,-99,NA,NA,0,1,-99,-99
"1368","collect","loyalty",18,1,-99,-99,NA,NA,1,0,-99,-99
"1368","pea","bathtub",19,1,-99,-99,NA,NA,0,0,-99,-99
"1368","copy","bedroom",20,1,-99,-99,NA,NA,1,0,-99,-99
"1368","bacon","feud",21,1,-99,-99,NA,NA,1,1,-99,-99
"1368","biology","temper",22,1,-99,-99,NA,NA,0,0,-99,-99
"1368","link","crisis",23,1,-99,-99,NA,NA,1,0,-99,-99
"1368","date","laugh",24,1,-99,-99,NA,NA,1,0,-99,-99
"1368","glue","force",25,1,-99,-99,NA,NA,1,0,-99,-99
"1368","capital","figure",26,1,-99,-99,NA,NA,1,1,-99,-99
"1368","mill","feast",27,1,-99,-99,NA,NA,0,1,-99,-99
"1368","process","joker",28,1,-99,-99,NA,NA,1,1,-99,-99
"1368","fan","feature",29,1,-99,-99,NA,NA,0,1,-99,-99
"1368","need","faucet",30,1,-99,-99,NA,NA,1,1,-99,-99
"1368","bullet","walkway",31,1,-99,-99,NA,NA,1,1,-99,-99
"1368","smother","surgery",32,1,-99,-99,NA,NA,0,0,-99,-99
"1368","risk","zero",33,1,-99,-99,NA,NA,0,0,-99,-99
"1368","visit","glove",34,1,-99,-99,NA,NA,1,0,-99,-99
"1368","climax","saucer",35,1,-99,-99,NA,NA,0,1,-99,-99
"1368","banner","glide",36,1,-99,-99,NA,NA,0,1,-99,-99
"1368","want","ascent",37,1,-99,-99,NA,NA,1,0,-99,-99
"1368","replace","roach",38,1,-99,-99,NA,NA,1,0,-99,-99
"1368","grip","beach",39,1,-99,-99,NA,NA,0,1,-99,-99
"1368","knock","otter",40,1,-99,-99,NA,NA,0,0,-99,-99
"1368","mill","feast",1,2,-99,-99,NA,NA,0,1,-99,-99
"1368","banner","glide",2,2,-99,-99,NA,NA,0,1,-99,-99
"1368","anger","decay",3,2,-99,-99,NA,NA,1,1,-99,-99
"1368","bleach","ruin",4,2,-99,-99,NA,NA,0,0,-99,-99
"1368","fan","feature",5,2,-99,-99,NA,NA,0,1,-99,-99
"1368","find","clown",6,2,-99,-99,NA,NA,0,1,-99,-99
"1368","process","joker",7,2,-99,-99,NA,NA,1,1,-99,-99
"1368","prison","loaf",8,2,-99,-99,NA,NA,0,0,-99,-99
"1368","date","laugh",9,2,-99,-99,NA,NA,1,0,-99,-99
"1368","remind","foam",10,2,-99,-99,NA,NA,0,1,-99,-99
"1368","need","faucet",11,2,-99,-99,NA,NA,1,1,-99,-99
"1368","copy","bedroom",12,2,-99,-99,NA,NA,1,0,-99,-99
"1368","chicken","beet",13,2,-99,-99,NA,NA,1,1,-99,-99
"1368","plant","worm",14,2,-99,-99,NA,NA,0,0,-99,-99
"1368","bacon","feud",15,2,-99,-99,NA,NA,1,1,-99,-99
"1368","want","ascent",16,2,-99,-99,NA,NA,1,0,-99,-99
"1368","port","cinema",17,2,-99,-99,NA,NA,1,1,-99,-99
"1368","collect","loyalty",18,2,-99,-99,NA,NA,1,0,-99,-99
"1368","bullet","walkway",19,2,-99,-99,NA,NA,1,1,-99,-99
"1368","pork","emperor",20,2,-99,-99,NA,NA,1,1,-99,-99
"1368","bias","sirloin",21,2,-99,-99,NA,NA,0,1,-99,-99
"1368","shrink","mafia",22,2,-99,-99,NA,NA,0,0,-99,-99
"1368","nerve","bumper",23,2,-99,-99,NA,NA,0,1,-99,-99
"1368","rock","milk",24,2,-99,-99,NA,NA,1,0,-99,-99
"1368","fee","chowder",25,2,-99,-99,NA,NA,1,0,-99,-99
"1368","capital","figure",26,2,-99,-99,NA,NA,1,1,-99,-99
"1368","knock","otter",27,2,-99,-99,NA,NA,0,0,-99,-99
"1368","pea","bathtub",28,2,-99,-99,NA,NA,0,0,-99,-99
"1368","climax","saucer",29,2,-99,-99,NA,NA,0,1,-99,-99
"1368","glue","force",30,2,-99,-99,NA,NA,1,0,-99,-99
"1368","link","crisis",31,2,-99,-99,NA,NA,1,0,-99,-99
"1368","smother","surgery",32,2,-99,-99,NA,NA,0,0,-99,-99
"1368","forest","knob",33,2,-99,-99,NA,NA,0,1,-99,-99
"1368","replace","roach",34,2,-99,-99,NA,NA,1,0,-99,-99
"1368","biology","temper",35,2,-99,-99,NA,NA,0,0,-99,-99
"1368","visit","glove",36,2,-99,-99,NA,NA,1,0,-99,-99
"1368","calf","annoy",37,2,-99,-99,NA,NA,0,0,-99,-99
"1368","grip","beach",38,2,-99,-99,NA,NA,0,1,-99,-99
"1368","caring","skirt",39,2,-99,-99,NA,NA,1,1,-99,-99
"1368","risk","zero",40,2,-99,-99,NA,NA,0,0,-99,-99
"1368","pork","emperor",1,3,15,8.443,26,0.65,1,1,1,8.313
"1368","fan","feature",2,3,14,6.111,22,0.55,0,1,0,5.448
"1368","plant","worm",3,3,19,5.895,30,0.75,0,0,1,0.725
"1368","find","clown",4,3,19,3.168,31,0.775,0,1,0,0.79
"1368","chicken","beet",5,3,14,3.513,23,0.575,1,1,1,1
"1368","banner","glide",6,3,11,3.455,20,0.5,0,1,0,0.769
"1368","port","cinema",7,3,14,3.677,24,0.6,1,1,1,0.996
"1368","copy","bedroom",8,3,3,4.595,1,0.025,1,0,0,0.936
"1368","visit","glove",9,3,5,2.879,5,0.125,1,0,0,1.117
"1368","bleach","ruin",10,3,79,4.198,39,0.975,0,0,1,1.52
"1368","remind","foam",11,3,18,2.974,29,0.725,0,1,0,0.723
"1368","pea","bathtub",12,3,70,2.518,38,0.95,0,0,1,1.193
"1368","collect","loyalty",13,3,3,2.64,2,0.05,1,0,0,2.497
"1368","mill","feast",14,3,10,2.188,17,0.425,0,1,0,0.609
"1368","knock","otter",15,3,80,3.817,40,1,0,0,1,1.213
"1368","forest","knob",16,3,8,3.806,12,0.3,0,1,0,0.783
"1368","risk","zero",17,3,50,5.268,36,0.9,0,0,1,1.059
"1368","biology","temper",18,3,49,3.458,35,0.875,0,0,1,0.656
"1368","bias","sirloin",19,3,14,5.404,25,0.625,0,1,0,0.808
"1368","need","faucet",20,3,9,2.478,16,0.4,1,1,1,2.86
"1368","process","joker",21,3,8,2.781,13,0.325,1,1,1,0.67
"1368","capital","figure",22,3,15,2.112,27,0.675,1,1,1,0.867
"1368","bullet","walkway",23,3,5,5.384,6,0.15,1,1,1,2.145
"1368","prison","loaf",24,3,44,3.449,34,0.85,0,0,1,1.012
"1368","grip","beach",25,3,10,3.986,18,0.45,0,1,0,1.193
"1368","glue","force",26,3,6,3.13,7,0.175,1,0,0,0.662
"1368","shrink","mafia",27,3,50,3.575,37,0.925,0,0,1,0.629
"1368","calf","annoy",28,3,26,8.035,32,0.8,0,0,1,0.97
"1368","link","crisis",29,3,4,3.02,3,0.075,1,0,0,0.867
"1368","climax","saucer",30,3,8,2.665,14,0.35,0,1,0,1.344
"1368","fee","chowder",31,3,6,2.123,8,0.2,1,0,0,1.394
"1368","replace","roach",32,3,6,2.437,9,0.225,1,0,0,1.975
"1368","caring","skirt",33,3,10,4.038,19,0.475,1,1,1,1.251
"1368","want","ascent",34,3,6,3.247,10,0.25,1,0,0,2.24
"1368","anger","decay",35,3,13,4.023,21,0.525,1,1,1,0.69
"1368","date","laugh",36,3,4,4.409,4,0.1,1,0,0,1.751
"1368","bacon","feud",37,3,8,4.883,15,0.375,1,1,1,0.853
"1368","smother","surgery",38,3,28,2.831,33,0.825,0,0,1,2.078
"1368","nerve","bumper",39,3,16,4.401,28,0.7,0,1,0,1.134
"1368","rock","milk",40,3,7,3.951,11,0.275,1,0,0,2.03
"1467","mill","feast",1,1,-99,-99,NA,NA,1,0,-99,-99
"1467","port","cinema",2,1,-99,-99,NA,NA,1,0,-99,-99
"1467","collect","loyalty",3,1,-99,-99,NA,NA,1,1,-99,-99
"1467","forest","knob",4,1,-99,-99,NA,NA,1,0,-99,-99
"1467","process","joker",5,1,-99,-99,NA,NA,0,0,-99,-99
"1467","calf","annoy",6,1,-99,-99,NA,NA,1,0,-99,-99
"1467","find","clown",7,1,-99,-99,NA,NA,0,0,-99,-99
"1467","bacon","feud",8,1,-99,-99,NA,NA,1,1,-99,-99
"1467","bleach","ruin",9,1,-99,-99,NA,NA,0,0,-99,-99
"1467","anger","decay",10,1,-99,-99,NA,NA,0,1,-99,-99
"1467","grip","beach",11,1,-99,-99,NA,NA,1,0,-99,-99
"1467","prison","loaf",12,1,-99,-99,NA,NA,1,0,-99,-99
"1467","pea","bathtub",13,1,-99,-99,NA,NA,1,1,-99,-99
"1467","nerve","bumper",14,1,-99,-99,NA,NA,1,0,-99,-99
"1467","shrink","mafia",15,1,-99,-99,NA,NA,0,0,-99,-99
"1467","fee","chowder",16,1,-99,-99,NA,NA,0,1,-99,-99
"1467","visit","glove",17,1,-99,-99,NA,NA,0,1,-99,-99
"1467","bullet","walkway",18,1,-99,-99,NA,NA,0,0,-99,-99
"1467","remind","foam",19,1,-99,-99,NA,NA,0,0,-99,-99
"1467","glue","force",20,1,-99,-99,NA,NA,1,0,-99,-99
"1467","rock","milk",21,1,-99,-99,NA,NA,1,1,-99,-99
"1467","banner","glide",22,1,-99,-99,NA,NA,0,1,-99,-99
"1467","bias","sirloin",23,1,-99,-99,NA,NA,0,1,-99,-99
"1467","link","crisis",24,1,-99,-99,NA,NA,1,1,-99,-99
"1467","date","laugh",25,1,-99,-99,NA,NA,0,1,-99,-99
"1467","biology","temper",26,1,-99,-99,NA,NA,0,1,-99,-99
"1467","caring","skirt",27,1,-99,-99,NA,NA,0,1,-99,-99
"1467","risk","zero",28,1,-99,-99,NA,NA,1,0,-99,-99
"1467","knock","otter",29,1,-99,-99,NA,NA,1,1,-99,-99
"1467","pork","emperor",30,1,-99,-99,NA,NA,1,1,-99,-99
"1467","want","ascent",31,1,-99,-99,NA,NA,0,0,-99,-99
"1467","copy","bedroom",32,1,-99,-99,NA,NA,1,0,-99,-99
"1467","fan","feature",33,1,-99,-99,NA,NA,1,1,-99,-99
"1467","replace","roach",34,1,-99,-99,NA,NA,0,0,-99,-99
"1467","plant","worm",35,1,-99,-99,NA,NA,0,0,-99,-99
"1467","need","faucet",36,1,-99,-99,NA,NA,0,1,-99,-99
"1467","chicken","beet",37,1,-99,-99,NA,NA,1,1,-99,-99
"1467","climax","saucer",38,1,-99,-99,NA,NA,0,0,-99,-99
"1467","capital","figure",39,1,-99,-99,NA,NA,1,1,-99,-99
"1467","smother","surgery",40,1,-99,-99,NA,NA,0,1,-99,-99
"1467","find","clown",1,2,-99,-99,NA,NA,0,0,-99,-99
"1467","date","laugh",2,2,-99,-99,NA,NA,0,1,-99,-99
"1467","remind","foam",3,2,-99,-99,NA,NA,0,0,-99,-99
"1467","process","joker",4,2,-99,-99,NA,NA,0,0,-99,-99
"1467","want","ascent",5,2,-99,-99,NA,NA,0,0,-99,-99
"1467","climax","saucer",6,2,-99,-99,NA,NA,0,0,-99,-99
"1467","forest","knob",7,2,-99,-99,NA,NA,1,0,-99,-99
"1467","link","crisis",8,2,-99,-99,NA,NA,1,1,-99,-99
"1467","glue","force",9,2,-99,-99,NA,NA,1,0,-99,-99
"1467","chicken","beet",10,2,-99,-99,NA,NA,1,1,-99,-99
"1467","anger","decay",11,2,-99,-99,NA,NA,0,1,-99,-99
"1467","port","cinema",12,2,-99,-99,NA,NA,1,0,-99,-99
"1467","bleach","ruin",13,2,-99,-99,NA,NA,0,0,-99,-99
"1467","smother","surgery",14,2,-99,-99,NA,NA,0,1,-99,-99
"1467","need","faucet",15,2,-99,-99,NA,NA,0,1,-99,-99
"1467","grip","beach",16,2,-99,-99,NA,NA,1,0,-99,-99
"1467","fan","feature",17,2,-99,-99,NA,NA,1,1,-99,-99
"1467","collect","loyalty",18,2,-99,-99,NA,NA,1,1,-99,-99
"1467","visit","glove",19,2,-99,-99,NA,NA,0,1,-99,-99
"1467","copy","bedroom",20,2,-99,-99,NA,NA,1,0,-99,-99
"1467","mill","feast",21,2,-99,-99,NA,NA,1,0,-99,-99
"1467","plant","worm",22,2,-99,-99,NA,NA,0,0,-99,-99
"1467","bacon","feud",23,2,-99,-99,NA,NA,1,1,-99,-99
"1467","pork","emperor",24,2,-99,-99,NA,NA,1,1,-99,-99
"1467","calf","annoy",25,2,-99,-99,NA,NA,1,0,-99,-99
"1467","rock","milk",26,2,-99,-99,NA,NA,1,1,-99,-99
"1467","banner","glide",27,2,-99,-99,NA,NA,0,1,-99,-99
"1467","knock","otter",28,2,-99,-99,NA,NA,1,1,-99,-99
"1467","replace","roach",29,2,-99,-99,NA,NA,0,0,-99,-99
"1467","risk","zero",30,2,-99,-99,NA,NA,1,0,-99,-99
"1467","bias","sirloin",31,2,-99,-99,NA,NA,0,1,-99,-99
"1467","pea","bathtub",32,2,-99,-99,NA,NA,1,1,-99,-99
"1467","fee","chowder",33,2,-99,-99,NA,NA,0,1,-99,-99
"1467","nerve","bumper",34,2,-99,-99,NA,NA,1,0,-99,-99
"1467","bullet","walkway",35,2,-99,-99,NA,NA,0,0,-99,-99
"1467","shrink","mafia",36,2,-99,-99,NA,NA,0,0,-99,-99
"1467","caring","skirt",37,2,-99,-99,NA,NA,0,1,-99,-99
"1467","prison","loaf",38,2,-99,-99,NA,NA,1,0,-99,-99
"1467","biology","temper",39,2,-99,-99,NA,NA,0,1,-99,-99
"1467","capital","figure",40,2,-99,-99,NA,NA,1,1,-99,-99
"1467","biology","temper",1,3,1,15.926,1,0.025,0,1,0,11.007
"1467","port","cinema",2,3,18,11.599,28,0.7,1,0,0,1.392
"1467","copy","bedroom",3,3,38,6.104,34,0.85,1,0,0,1.304
"1467","chicken","beet",4,3,100,3.456,40,1,1,1,1,0.936
"1467","forest","knob",5,3,14,11.679,22,0.55,1,0,0,0.975
"1467","risk","zero",6,3,15,4.016,23,0.575,1,0,0,1.136
"1467","anger","decay",7,3,2,4.184,4,0.1,0,1,0,0.736
"1467","fee","chowder",8,3,1,3.975,2,0.05,0,1,0,1.279
"1467","link","crisis",9,3,93,3.959,39,0.975,1,1,1,0.944
"1467","calf","annoy",10,3,12,12.352,19,0.475,1,0,0,0.607
"1467","smother","surgery",11,3,10,6.263,16,0.4,0,1,0,0.88
"1467","nerve","bumper",12,3,15,2.176,24,0.6,1,0,0,0.592
"1467","mill","feast",13,3,11,2.56,18,0.45,1,0,0,0.743
"1467","prison","loaf",14,3,15,2.127,25,0.625,1,0,0,0.735
"1467","glue","force",15,3,15,1.991,26,0.65,1,0,0,0.864
"1467","grip","beach",16,3,12,2.368,20,0.5,1,0,0,0.56
"1467","visit","glove",17,3,8,2.568,12,0.3,0,1,0,0.976
"1467","bias","sirloin",18,3,4,4.759,7,0.175,0,1,0,1.336
"1467","bacon","feud",19,3,79,16.688,37,0.925,1,1,1,1.175
"1467","banner","glide",20,3,8,2.903,13,0.325,0,1,0,0.832
"1467","date","laugh",21,3,8,4.519,14,0.35,0,1,0,1.08
"1467","need","faucet",22,3,3,1.855,5,0.125,0,1,0,0.928
"1467","caring","skirt",23,3,5,1.743,8,0.2,0,1,0,0.791
"1467","process","joker",24,3,6,5.983,9,0.225,0,0,1,1.159
"1467","bullet","walkway",25,3,6,2.135,10,0.25,0,0,1,1.207
"1467","climax","saucer",26,3,10,4.415,17,0.425,0,0,1,1.664
"1467","replace","roach",27,3,3,4.168,6,0.15,0,0,1,1.145
"1467","plant","worm",28,3,6,3.743,11,0.275,0,0,1,2.184
"1467","find","clown",29,3,17,2.687,27,0.675,0,0,1,1.008
"1467","pea","bathtub",30,3,78,21.287,36,0.9,1,1,1,1.607
"1467","bleach","ruin",31,3,20,25.087,29,0.725,0,0,1,1.247
"1467","knock","otter",32,3,30,3.608,33,0.825,1,1,1,0.872
"1467","rock","milk",33,3,28,1.368,32,0.8,1,1,1,0.856
"1467","collect","loyalty",34,3,25,1.393,31,0.775,1,1,1,0.887
"1467","want","ascent",35,3,1,1.647,3,0.075,0,0,1,0.808
"1467","capital","figure",36,3,77,8.424,35,0.875,1,1,1,1.128
"1467","pork","emperor",37,3,90,5.328,38,0.95,1,1,1,4.248
"1467","remind","foam",38,3,9,7.767,15,0.375,0,0,1,0.847
"1467","fan","feature",39,3,21,2.063,30,0.75,1,1,1,0.759
"1467","shrink","mafia",40,3,13,2.407,21,0.525,0,0,1,0.703
"1554","need","faucet",1,1,-99,-99,NA,NA,0,0,-99,-99
"1554","port","cinema",2,1,-99,-99,NA,NA,0,1,-99,-99
"1554","capital","figure",3,1,-99,-99,NA,NA,0,0,-99,-99
"1554","pork","emperor",4,1,-99,-99,NA,NA,1,0,-99,-99
"1554","process","joker",5,1,-99,-99,NA,NA,1,1,-99,-99
"1554","bullet","walkway",6,1,-99,-99,NA,NA,0,1,-99,-99
"1554","forest","knob",7,1,-99,-99,NA,NA,0,0,-99,-99
"1554","grip","beach",8,1,-99,-99,NA,NA,1,1,-99,-99
"1554","knock","otter",9,1,-99,-99,NA,NA,0,1,-99,-99
"1554","pea","bathtub",10,1,-99,-99,NA,NA,0,1,-99,-99
"1554","bias","sirloin",11,1,-99,-99,NA,NA,1,0,-99,-99
"1554","chicken","beet",12,1,-99,-99,NA,NA,0,0,-99,-99
"1554","biology","temper",13,1,-99,-99,NA,NA,0,1,-99,-99
"1554","caring","skirt",14,1,-99,-99,NA,NA,1,0,-99,-99
"1554","anger","decay",15,1,-99,-99,NA,NA,1,0,-99,-99
"1554","bleach","ruin",16,1,-99,-99,NA,NA,1,0,-99,-99
"1554","find","clown",17,1,-99,-99,NA,NA,1,1,-99,-99
"1554","copy","bedroom",18,1,-99,-99,NA,NA,1,1,-99,-99
"1554","nerve","bumper",19,1,-99,-99,NA,NA,0,1,-99,-99
"1554","smother","surgery",20,1,-99,-99,NA,NA,1,0,-99,-99
"1554","climax","saucer",21,1,-99,-99,NA,NA,0,0,-99,-99
"1554","rock","milk",22,1,-99,-99,NA,NA,0,0,-99,-99
"1554","shrink","mafia",23,1,-99,-99,NA,NA,1,1,-99,-99
"1554","bacon","feud",24,1,-99,-99,NA,NA,1,1,-99,-99
"1554","replace","roach",25,1,-99,-99,NA,NA,0,1,-99,-99
"1554","visit","glove",26,1,-99,-99,NA,NA,0,1,-99,-99
"1554","calf","annoy",27,1,-99,-99,NA,NA,1,0,-99,-99
"1554","glue","force",28,1,-99,-99,NA,NA,0,0,-99,-99
"1554","collect","loyalty",29,1,-99,-99,NA,NA,0,1,-99,-99
"1554","plant","worm",30,1,-99,-99,NA,NA,1,1,-99,-99
"1554","want","ascent",31,1,-99,-99,NA,NA,0,0,-99,-99
"1554","fan","feature",32,1,-99,-99,NA,NA,1,0,-99,-99
"1554","remind","foam",33,1,-99,-99,NA,NA,0,0,-99,-99
"1554","link","crisis",34,1,-99,-99,NA,NA,1,1,-99,-99
"1554","banner","glide",35,1,-99,-99,NA,NA,1,0,-99,-99
"1554","prison","loaf",36,1,-99,-99,NA,NA,0,0,-99,-99
"1554","mill","feast",37,1,-99,-99,NA,NA,1,1,-99,-99
"1554","fee","chowder",38,1,-99,-99,NA,NA,0,1,-99,-99
"1554","risk","zero",39,1,-99,-99,NA,NA,1,0,-99,-99
"1554","date","laugh",40,1,-99,-99,NA,NA,1,1,-99,-99
"1554","pea","bathtub",1,2,-99,-99,NA,NA,0,1,-99,-99
"1554","biology","temper",2,2,-99,-99,NA,NA,0,1,-99,-99
"1554","link","crisis",3,2,-99,-99,NA,NA,1,1,-99,-99
"1554","find","clown",4,2,-99,-99,NA,NA,1,1,-99,-99
"1554","remind","foam",5,2,-99,-99,NA,NA,0,0,-99,-99
"1554","mill","feast",6,2,-99,-99,NA,NA,1,1,-99,-99
"1554","port","cinema",7,2,-99,-99,NA,NA,0,1,-99,-99
"1554","process","joker",8,2,-99,-99,NA,NA,1,1,-99,-99
"1554","climax","saucer",9,2,-99,-99,NA,NA,0,0,-99,-99
"1554","knock","otter",10,2,-99,-99,NA,NA,0,1,-99,-99
"1554","pork","emperor",11,2,-99,-99,NA,NA,1,0,-99,-99
"1554","chicken","beet",12,2,-99,-99,NA,NA,0,0,-99,-99
"1554","date","laugh",13,2,-99,-99,NA,NA,1,1,-99,-99
"1554","copy","bedroom",14,2,-99,-99,NA,NA,1,1,-99,-99
"1554","forest","knob",15,2,-99,-99,NA,NA,0,0,-99,-99
"1554","plant","worm",16,2,-99,-99,NA,NA,1,1,-99,-99
"1554","bullet","walkway",17,2,-99,-99,NA,NA,0,1,-99,-99
"1554","grip","beach",18,2,-99,-99,NA,NA,1,1,-99,-99
"1554","anger","decay",19,2,-99,-99,NA,NA,1,0,-99,-99
"1554","nerve","bumper",20,2,-99,-99,NA,NA,0,1,-99,-99
"1554","need","faucet",21,2,-99,-99,NA,NA,0,0,-99,-99
"1554","smother","surgery",22,2,-99,-99,NA,NA,1,0,-99,-99
"1554","banner","glide",23,2,-99,-99,NA,NA,1,0,-99,-99
"1554","bleach","ruin",24,2,-99,-99,NA,NA,1,0,-99,-99
"1554","collect","loyalty",25,2,-99,-99,NA,NA,0,1,-99,-99
"1554","risk","zero",26,2,-99,-99,NA,NA,1,0,-99,-99
"1554","calf","annoy",27,2,-99,-99,NA,NA,1,0,-99,-99
"1554","prison","loaf",28,2,-99,-99,NA,NA,0,0,-99,-99
"1554","bacon","feud",29,2,-99,-99,NA,NA,1,1,-99,-99
"1554","glue","force",30,2,-99,-99,NA,NA,0,0,-99,-99
"1554","shrink","mafia",31,2,-99,-99,NA,NA,1,1,-99,-99
"1554","capital","figure",32,2,-99,-99,NA,NA,0,0,-99,-99
"1554","visit","glove",33,2,-99,-99,NA,NA,0,1,-99,-99
"1554","rock","milk",34,2,-99,-99,NA,NA,0,0,-99,-99
"1554","want","ascent",35,2,-99,-99,NA,NA,0,0,-99,-99
"1554","replace","roach",36,2,-99,-99,NA,NA,0,1,-99,-99
"1554","fan","feature",37,2,-99,-99,NA,NA,1,0,-99,-99
"1554","caring","skirt",38,2,-99,-99,NA,NA,1,0,-99,-99
"1554","fee","chowder",39,2,-99,-99,NA,NA,0,1,-99,-99
"1554","bias","sirloin",40,2,-99,-99,NA,NA,1,0,-99,-99
"1554","capital","figure",1,3,13,5.563,27,0.675,0,0,1,6.876
"1554","biology","temper",2,3,28,3.386,38,0.95,0,1,0,3.007
"1554","pea","bathtub",3,3,22,2.086,35,0.875,0,1,0,0.601
"1554","port","cinema",4,3,24,1.881,37,0.925,0,1,0,0.571
"1554","climax","saucer",5,3,14,1.491,30,0.75,0,0,1,0.656
"1554","collect","loyalty",6,3,16,3.778,32,0.8,0,1,0,1.875
"1554","visit","glove",7,3,34,3.077,40,1,0,1,0,0.664
"1554","nerve","bumper",8,3,28,1.172,39,0.975,0,1,0,0.717
"1554","knock","otter",9,3,18,1.008,33,0.825,0,1,0,0.498
"1554","calf","annoy",10,3,13,0.953,28,0.7,1,0,0,0.514
"1554","fee","chowder",11,3,23,1.086,36,0.9,0,1,0,0.446
"1554","bullet","walkway",12,3,19,1.092,34,0.85,0,1,0,0.467
"1554","risk","zero",13,3,13,1.789,29,0.725,1,0,0,0.664
"1554","caring","skirt",14,3,1,1.264,1,0.025,1,0,0,0.719
"1554","bleach","ruin",15,3,5,1.148,26,0.65,1,0,0,0.507
"1554","pork","emperor",16,3,4,1.193,25,0.625,1,0,0,0.523
"1554","anger","decay",17,3,2,1.061,23,0.575,1,0,0,0.736
"1554","bias","sirloin",18,3,1,1.21,2,0.05,1,0,0,0.648
"1554","fan","feature",19,3,1,1.228,3,0.075,1,0,0,0.537
"1554","smother","surgery",20,3,1,1.289,4,0.1,1,0,0,0.529
"1554","banner","glide",21,3,1,1.593,5,0.125,1,0,0,0.546
"1554","replace","roach",22,3,15,1.547,31,0.775,0,1,0,0.507
"1554","date","laugh",23,3,1,1.459,6,0.15,1,1,1,0.655
"1554","mill","feast",24,3,1,1.11,7,0.175,1,1,1,0.835
"1554","copy","bedroom",25,3,1,2.038,8,0.2,1,1,1,0.83
"1554","process","joker",26,3,1,1.717,9,0.225,1,1,1,2.615
"1554","shrink","mafia",27,3,1,1.283,10,0.25,1,1,1,0.763
"1554","grip","beach",28,3,1,1.078,11,0.275,1,1,1,0.663
"1554","bacon","feud",29,3,1,1.615,12,0.3,1,1,1,0.719
"1554","prison","loaf",30,3,3,1.342,24,0.6,0,0,1,0.626
"1554","link","crisis",31,3,1,1.967,13,0.325,1,1,1,0.649
"1554","plant","worm",32,3,1,1.249,14,0.35,1,1,1,0.655
"1554","find","clown",33,3,1,1.139,15,0.375,1,1,1,0.601
"1554","need","faucet",34,3,1,1.007,16,0.4,0,0,1,0.685
"1554","forest","knob",35,3,1,1.039,17,0.425,0,0,1,0.561
"1554","chicken","beet",36,3,1,1.203,18,0.45,0,0,1,0.693
"1554","remind","foam",37,3,1,1.329,19,0.475,0,0,1,0.616
"1554","glue","force",38,3,1,2.139,20,0.5,0,0,1,1.367
"1554","want","ascent",39,3,1,1.163,21,0.525,0,0,1,0.757
"1554","rock","milk",40,3,1,1.147,22,0.55,0,0,1,0.523
"1618","caring","skirt",1,1,-99,-99,NA,NA,0,1,-99,-99
"1618","chicken","beet",2,1,-99,-99,NA,NA,0,1,-99,-99
"1618","shrink","mafia",3,1,-99,-99,NA,NA,0,1,-99,-99
"1618","pork","emperor",4,1,-99,-99,NA,NA,1,1,-99,-99
"1618","copy","bedroom",5,1,-99,-99,NA,NA,1,1,-99,-99
"1618","link","crisis",6,1,-99,-99,NA,NA,0,0,-99,-99
"1618","bias","sirloin",7,1,-99,-99,NA,NA,0,0,-99,-99
"1618","capital","figure",8,1,-99,-99,NA,NA,1,0,-99,-99
"1618","mill","feast",9,1,-99,-99,NA,NA,1,1,-99,-99
"1618","remind","foam",10,1,-99,-99,NA,NA,0,0,-99,-99
"1618","banner","glide",11,1,-99,-99,NA,NA,0,0,-99,-99
"1618","grip","beach",12,1,-99,-99,NA,NA,1,0,-99,-99
"1618","bullet","walkway",13,1,-99,-99,NA,NA,0,0,-99,-99
"1618","glue","force",14,1,-99,-99,NA,NA,0,0,-99,-99
"1618","anger","decay",15,1,-99,-99,NA,NA,0,1,-99,-99
"1618","climax","saucer",16,1,-99,-99,NA,NA,1,1,-99,-99
"1618","pea","bathtub",17,1,-99,-99,NA,NA,1,1,-99,-99
"1618","biology","temper",18,1,-99,-99,NA,NA,1,1,-99,-99
"1618","smother","surgery",19,1,-99,-99,NA,NA,0,0,-99,-99
"1618","port","cinema",20,1,-99,-99,NA,NA,0,1,-99,-99
"1618","find","clown",21,1,-99,-99,NA,NA,0,1,-99,-99
"1618","risk","zero",22,1,-99,-99,NA,NA,1,0,-99,-99
"1618","bacon","feud",23,1,-99,-99,NA,NA,0,1,-99,-99
"1618","need","faucet",24,1,-99,-99,NA,NA,1,1,-99,-99
"1618","collect","loyalty",25,1,-99,-99,NA,NA,0,0,-99,-99
"1618","forest","knob",26,1,-99,-99,NA,NA,1,0,-99,-99
"1618","process","joker",27,1,-99,-99,NA,NA,1,0,-99,-99
"1618","prison","loaf",28,1,-99,-99,NA,NA,0,0,-99,-99
"1618","calf","annoy",29,1,-99,-99,NA,NA,1,1,-99,-99
"1618","replace","roach",30,1,-99,-99,NA,NA,1,1,-99,-99
"1618","want","ascent",31,1,-99,-99,NA,NA,0,1,-99,-99
"1618","nerve","bumper",32,1,-99,-99,NA,NA,1,0,-99,-99
"1618","fan","feature",33,1,-99,-99,NA,NA,0,1,-99,-99
"1618","knock","otter",34,1,-99,-99,NA,NA,1,1,-99,-99
"1618","date","laugh",35,1,-99,-99,NA,NA,0,0,-99,-99
"1618","plant","worm",36,1,-99,-99,NA,NA,1,0,-99,-99
"1618","rock","milk",37,1,-99,-99,NA,NA,0,1,-99,-99
"1618","visit","glove",38,1,-99,-99,NA,NA,1,0,-99,-99
"1618","bleach","ruin",39,1,-99,-99,NA,NA,1,0,-99,-99
"1618","fee","chowder",40,1,-99,-99,NA,NA,1,0,-99,-99
"1618","calf","annoy",1,2,-99,-99,NA,NA,1,1,-99,-99
"1618","forest","knob",2,2,-99,-99,NA,NA,1,0,-99,-99
"1618","bias","sirloin",3,2,-99,-99,NA,NA,0,0,-99,-99
"1618","biology","temper",4,2,-99,-99,NA,NA,1,1,-99,-99
"1618","fee","chowder",5,2,-99,-99,NA,NA,1,0,-99,-99
"1618","find","clown",6,2,-99,-99,NA,NA,0,1,-99,-99
"1618","remind","foam",7,2,-99,-99,NA,NA,0,0,-99,-99
"1618","plant","worm",8,2,-99,-99,NA,NA,1,0,-99,-99
"1618","mill","feast",9,2,-99,-99,NA,NA,1,1,-99,-99
"1618","need","faucet",10,2,-99,-99,NA,NA,1,1,-99,-99
"1618","visit","glove",11,2,-99,-99,NA,NA,1,0,-99,-99
"1618","caring","skirt",12,2,-99,-99,NA,NA,0,1,-99,-99
"1618","bacon","feud",13,2,-99,-99,NA,NA,0,1,-99,-99
"1618","risk","zero",14,2,-99,-99,NA,NA,1,0,-99,-99
"1618","prison","loaf",15,2,-99,-99,NA,NA,0,0,-99,-99
"1618","pork","emperor",16,2,-99,-99,NA,NA,1,1,-99,-99
"1618","fan","feature",17,2,-99,-99,NA,NA,0,1,-99,-99
"1618","knock","otter",18,2,-99,-99,NA,NA,1,1,-99,-99
"1618","bullet","walkway",19,2,-99,-99,NA,NA,0,0,-99,-99
"1618","glue","force",20,2,-99,-99,NA,NA,0,0,-99,-99
"1618","want","ascent",21,2,-99,-99,NA,NA,0,1,-99,-99
"1618","nerve","bumper",22,2,-99,-99,NA,NA,1,0,-99,-99
"1618","banner","glide",23,2,-99,-99,NA,NA,0,0,-99,-99
"1618","capital","figure",24,2,-99,-99,NA,NA,1,0,-99,-99
"1618","climax","saucer",25,2,-99,-99,NA,NA,1,1,-99,-99
"1618","port","cinema",26,2,-99,-99,NA,NA,0,1,-99,-99
"1618","link","crisis",27,2,-99,-99,NA,NA,0,0,-99,-99
"1618","anger","decay",28,2,-99,-99,NA,NA,0,1,-99,-99
"1618","copy","bedroom",29,2,-99,-99,NA,NA,1,1,-99,-99
"1618","smother","surgery",30,2,-99,-99,NA,NA,0,0,-99,-99
"1618","pea","bathtub",31,2,-99,-99,NA,NA,1,1,-99,-99
"1618","bleach","ruin",32,2,-99,-99,NA,NA,1,0,-99,-99
"1618","shrink","mafia",33,2,-99,-99,NA,NA,0,1,-99,-99
"1618","date","laugh",34,2,-99,-99,NA,NA,0,0,-99,-99
"1618","process","joker",35,2,-99,-99,NA,NA,1,0,-99,-99
"1618","grip","beach",36,2,-99,-99,NA,NA,1,0,-99,-99
"1618","chicken","beet",37,2,-99,-99,NA,NA,0,1,-99,-99
"1618","replace","roach",38,2,-99,-99,NA,NA,1,1,-99,-99
"1618","collect","loyalty",39,2,-99,-99,NA,NA,0,0,-99,-99
"1618","rock","milk",40,2,-99,-99,NA,NA,0,1,-99,-99
"1618","copy","bedroom",1,3,34,12.208,2,0.05,1,1,1,79.026
"1618","bias","sirloin",2,3,50,7.214,29,0.725,0,0,1,7.097
"1618","smother","surgery",3,3,50,7.463,30,0.75,0,0,1,1.233
"1618","mill","feast",4,3,49,4.609,27,0.675,1,1,1,1.717
"1618","replace","roach",5,3,45,2.393,19,0.475,1,1,1,1.001
"1618","biology","temper",6,3,44,2.011,16,0.4,1,1,1,1.399
"1618","pork","emperor",7,3,45,2.595,20,0.5,1,1,1,1.249
"1618","pea","bathtub",8,3,46,2.609,22,0.55,1,1,1,1.095
"1618","banner","glide",9,3,50,2.183,31,0.775,0,0,1,1.027
"1618","need","faucet",10,3,47,1.99,25,0.625,1,1,1,0.813
"1618","glue","force",11,3,51,2.482,37,0.925,0,0,1,1.206
"1618","calf","annoy",12,3,46,2.571,23,0.575,1,1,1,1.189
"1618","caring","skirt",13,3,47,2.516,26,0.65,0,1,0,0.768
"1618","want","ascent",14,3,46,2.62,24,0.6,0,1,0,1.118
"1618","collect","loyalty",15,3,58,2.972,39,0.975,0,0,1,1.467
"1618","fan","feature",16,3,42,2.017,13,0.325,0,1,0,1.121
"1618","date","laugh",17,3,54,2.346,38,0.95,0,0,1,0.977
"1618","prison","loaf",18,3,50,3.005,32,0.8,0,0,1,0.988
"1618","bullet","walkway",19,3,50,6.083,33,0.825,0,0,1,0.905
"1618","remind","foam",20,3,50,4.006,34,0.85,0,0,1,1.304
"1618","link","crisis",21,3,50,5.979,35,0.875,0,0,1,1.988
"1618","chicken","beet",22,3,50,5.682,36,0.9,0,1,0,0.966
"1618","climax","saucer",23,3,49,5.868,28,0.7,1,1,1,1.653
"1618","knock","otter",24,3,41,5.723,12,0.3,1,1,1,0.957
"1618","shrink","mafia",25,3,44,3.973,17,0.425,0,1,0,1.537
"1618","find","clown",26,3,64,3.915,40,1,0,1,0,0.881
"1618","anger","decay",27,3,42,1.949,14,0.35,0,1,0,1.043
"1618","process","joker",28,3,38,2.19,6,0.15,1,0,0,0.925
"1618","nerve","bumper",29,3,40,1.819,10,0.25,1,0,0,3.413
"1618","fee","chowder",30,3,40,2.035,11,0.275,1,0,0,10.013
"1618","port","cinema",31,3,42,2.057,15,0.375,0,1,0,0.827
"1618","forest","knob",32,3,35,1.673,3,0.075,1,0,0,0.831
"1618","grip","beach",33,3,37,2.073,5,0.125,1,0,0,6.226
"1618","capital","figure",34,3,38,2.276,7,0.175,1,0,0,1.096
"1618","risk","zero",35,3,32,1.661,1,0.025,1,0,0,1.056
"1618","rock","milk",36,3,44,12.548,18,0.45,0,1,0,0.967
"1618","plant","worm",37,3,36,1.453,4,0.1,1,0,0,0.817
"1618","visit","glove",38,3,39,2.067,9,0.225,1,0,0,0.82
"1618","bacon","feud",39,3,45,1.616,21,0.525,0,1,0,0.793
"1618","bleach","ruin",40,3,38,1.357,8,0.2,1,0,0,0.777
"1732","need","faucet",1,1,-99,-99,NA,NA,1,1,-99,-99
"1732","bacon","feud",2,1,-99,-99,NA,NA,1,1,-99,-99
"1732","biology","temper",3,1,-99,-99,NA,NA,1,0,-99,-99
"1732","capital","figure",4,1,-99,-99,NA,NA,1,0,-99,-99
"1732","want","ascent",5,1,-99,-99,NA,NA,0,0,-99,-99
"1732","process","joker",6,1,-99,-99,NA,NA,0,0,-99,-99
"1732","grip","beach",7,1,-99,-99,NA,NA,1,1,-99,-99
"1732","copy","bedroom",8,1,-99,-99,NA,NA,0,0,-99,-99
"1732","bias","sirloin",9,1,-99,-99,NA,NA,1,0,-99,-99
"1732","remind","foam",10,1,-99,-99,NA,NA,1,1,-99,-99
"1732","caring","skirt",11,1,-99,-99,NA,NA,0,1,-99,-99
"1732","forest","knob",12,1,-99,-99,NA,NA,0,0,-99,-99
"1732","date","laugh",13,1,-99,-99,NA,NA,0,1,-99,-99
"1732","find","clown",14,1,-99,-99,NA,NA,1,0,-99,-99
"1732","collect","loyalty",15,1,-99,-99,NA,NA,1,1,-99,-99
"1732","fan","feature",16,1,-99,-99,NA,NA,1,1,-99,-99
"1732","bleach","ruin",17,1,-99,-99,NA,NA,1,0,-99,-99
"1732","replace","roach",18,1,-99,-99,NA,NA,0,1,-99,-99
"1732","plant","worm",19,1,-99,-99,NA,NA,1,0,-99,-99
"1732","risk","zero",20,1,-99,-99,NA,NA,0,1,-99,-99
"1732","smother","surgery",21,1,-99,-99,NA,NA,0,1,-99,-99
"1732","pea","bathtub",22,1,-99,-99,NA,NA,1,0,-99,-99
"1732","knock","otter",23,1,-99,-99,NA,NA,1,1,-99,-99
"1732","chicken","beet",24,1,-99,-99,NA,NA,0,0,-99,-99
"1732","link","crisis",25,1,-99,-99,NA,NA,1,1,-99,-99
"1732","fee","chowder",26,1,-99,-99,NA,NA,0,0,-99,-99
"1732","rock","milk",27,1,-99,-99,NA,NA,0,1,-99,-99
"1732","shrink","mafia",28,1,-99,-99,NA,NA,1,1,-99,-99
"1732","climax","saucer",29,1,-99,-99,NA,NA,0,0,-99,-99
"1732","glue","force",30,1,-99,-99,NA,NA,0,1,-99,-99
"1732","bullet","walkway",31,1,-99,-99,NA,NA,0,1,-99,-99
"1732","calf","annoy",32,1,-99,-99,NA,NA,1,0,-99,-99
"1732","port","cinema",33,1,-99,-99,NA,NA,1,1,-99,-99
"1732","banner","glide",34,1,-99,-99,NA,NA,0,1,-99,-99
"1732","anger","decay",35,1,-99,-99,NA,NA,0,0,-99,-99
"1732","prison","loaf",36,1,-99,-99,NA,NA,0,0,-99,-99
"1732","pork","emperor",37,1,-99,-99,NA,NA,1,0,-99,-99
"1732","mill","feast",38,1,-99,-99,NA,NA,1,0,-99,-99
"1732","visit","glove",39,1,-99,-99,NA,NA,0,1,-99,-99
"1732","nerve","bumper",40,1,-99,-99,NA,NA,0,0,-99,-99
"1732","bias","sirloin",1,2,-99,-99,NA,NA,1,0,-99,-99
"1732","bullet","walkway",2,2,-99,-99,NA,NA,0,1,-99,-99
"1732","process","joker",3,2,-99,-99,NA,NA,0,0,-99,-99
"1732","smother","surgery",4,2,-99,-99,NA,NA,0,1,-99,-99
"1732","collect","loyalty",5,2,-99,-99,NA,NA,1,1,-99,-99
"1732","forest","knob",6,2,-99,-99,NA,NA,0,0,-99,-99
"1732","find","clown",7,2,-99,-99,NA,NA,1,0,-99,-99
"1732","port","cinema",8,2,-99,-99,NA,NA,1,1,-99,-99
"1732","replace","roach",9,2,-99,-99,NA,NA,0,1,-99,-99
"1732","mill","feast",10,2,-99,-99,NA,NA,1,0,-99,-99
"1732","shrink","mafia",11,2,-99,-99,NA,NA,1,1,-99,-99
"1732","bacon","feud",12,2,-99,-99,NA,NA,1,1,-99,-99
"1732","risk","zero",13,2,-99,-99,NA,NA,0,1,-99,-99
"1732","grip","beach",14,2,-99,-99,NA,NA,1,1,-99,-99
"1732","biology","temper",15,2,-99,-99,NA,NA,1,0,-99,-99
"1732","calf","annoy",16,2,-99,-99,NA,NA,1,0,-99,-99
"1732","caring","skirt",17,2,-99,-99,NA,NA,0,1,-99,-99
"1732","fan","feature",18,2,-99,-99,NA,NA,1,1,-99,-99
"1732","chicken","beet",19,2,-99,-99,NA,NA,0,0,-99,-99
"1732","bleach","ruin",20,2,-99,-99,NA,NA,1,0,-99,-99
"1732","pea","bathtub",21,2,-99,-99,NA,NA,1,0,-99,-99
"1732","glue","force",22,2,-99,-99,NA,NA,0,1,-99,-99
"1732","pork","emperor",23,2,-99,-99,NA,NA,1,0,-99,-99
"1732","climax","saucer",24,2,-99,-99,NA,NA,0,0,-99,-99
"1732","plant","worm",25,2,-99,-99,NA,NA,1,0,-99,-99
"1732","copy","bedroom",26,2,-99,-99,NA,NA,0,0,-99,-99
"1732","fee","chowder",27,2,-99,-99,NA,NA,0,0,-99,-99
"1732","knock","otter",28,2,-99,-99,NA,NA,1,1,-99,-99
"1732","capital","figure",29,2,-99,-99,NA,NA,1,0,-99,-99
"1732","visit","glove",30,2,-99,-99,NA,NA,0,1,-99,-99
"1732","anger","decay",31,2,-99,-99,NA,NA,0,0,-99,-99
"1732","date","laugh",32,2,-99,-99,NA,NA,0,1,-99,-99
"1732","need","faucet",33,2,-99,-99,NA,NA,1,1,-99,-99
"1732","nerve","bumper",34,2,-99,-99,NA,NA,0,0,-99,-99
"1732","rock","milk",35,2,-99,-99,NA,NA,0,1,-99,-99
"1732","remind","foam",36,2,-99,-99,NA,NA,1,1,-99,-99
"1732","prison","loaf",37,2,-99,-99,NA,NA,0,0,-99,-99
"1732","banner","glide",38,2,-99,-99,NA,NA,0,1,-99,-99
"1732","want","ascent",39,2,-99,-99,NA,NA,0,0,-99,-99
"1732","link","crisis",40,2,-99,-99,NA,NA,1,1,-99,-99
"1732","bullet","walkway",1,3,52,4.636,36,0.9,0,1,0,12.511
"1732","copy","bedroom",2,3,46,3.173,30,0.75,0,0,1,1.223
"1732","want","ascent",3,3,47,3.503,32,0.8,0,0,1,1.335
"1732","fan","feature",4,3,40,3.071,22,0.55,1,1,1,1.319
"1732","fee","chowder",5,3,42,2.767,25,0.625,0,0,1,1.216
"1732","collect","loyalty",6,3,40,2.783,23,0.575,1,1,1,2.029
"1732","climax","saucer",7,3,44,2.943,28,0.7,0,0,1,1.103
"1732","bacon","feud",8,3,37,2.791,16,0.4,1,1,1,1.167
"1732","port","cinema",9,3,38,2.839,17,0.425,1,1,1,1.087
"1732","nerve","bumper",10,3,44,2.679,29,0.725,0,0,1,1.367
"1732","forest","knob",11,3,46,3.287,31,0.775,0,0,1,1.081
"1732","mill","feast",12,3,10,4.316,1,0.025,1,0,0,1.223
"1732","anger","decay",13,3,65,3.151,38,0.95,0,0,1,1.055
"1732","pea","bathtub",14,3,21,3.599,3,0.075,1,0,0,1.391
"1732","need","faucet",15,3,38,2.735,18,0.45,1,1,1,1.879
"1732","chicken","beet",16,3,71,3.295,39,0.975,0,0,1,1.215
"1732","grip","beach",17,3,39,3.471,21,0.525,1,1,1,1.215
"1732","link","crisis",18,3,33,2.391,8,0.2,1,1,1,0.975
"1732","prison","loaf",19,3,100,3.51,40,1,0,0,1,1.335
"1732","knock","otter",20,3,34,3.004,9,0.225,1,1,1,1.367
"1732","process","joker",21,3,42,2.423,26,0.65,0,0,1,0.976
"1732","shrink","mafia",22,3,34,2.229,10,0.25,1,1,1,1.015
"1732","remind","foam",23,3,35,2.238,12,0.3,1,1,1,1.087
"1732","pork","emperor",24,3,35,2.543,13,0.325,1,0,0,2.463
"1732","caring","skirt",25,3,50,4.175,35,0.875,0,1,0,0.959
"1732","glue","force",26,3,47,4.015,33,0.825,0,1,0,1.014
"1732","banner","glide",27,3,48,2.238,34,0.85,0,1,0,0.959
"1732","rock","milk",28,3,42,2.127,27,0.675,0,1,0,1.199
"1732","bias","sirloin",29,3,22,4.228,4,0.1,1,0,0,1.048
"1732","biology","temper",30,3,27,2.637,5,0.125,1,0,0,0.967
"1732","replace","roach",31,3,40,2.535,24,0.6,0,1,0,1.207
"1732","find","clown",32,3,34,2.327,11,0.275,1,0,0,1.022
"1732","smother","surgery",33,3,38,2.327,19,0.475,0,1,0,1.183
"1732","bleach","ruin",34,3,30,2.471,6,0.15,1,0,0,0.935
"1732","plant","worm",35,3,36,2.575,14,0.35,1,0,0,1.055
"1732","visit","glove",36,3,36,2.671,15,0.375,0,1,0,1.303
"1732","date","laugh",37,3,38,2.151,20,0.5,0,1,0,0.871
"1732","risk","zero",38,3,54,2.319,37,0.925,0,1,0,0.983
"1732","calf","annoy",39,3,18,3.479,2,0.05,1,0,0,0.967
"1732","capital","figure",40,3,30,2.893,7,0.175,1,0,0,1.119
"1762","bias","sirloin",1,1,-99,-99,NA,NA,0,0,-99,-99
"1762","anger","decay",2,1,-99,-99,NA,NA,0,0,-99,-99
"1762","fee","chowder",3,1,-99,-99,NA,NA,0,1,-99,-99
"1762","bleach","ruin",4,1,-99,-99,NA,NA,1,1,-99,-99
"1762","pea","bathtub",5,1,-99,-99,NA,NA,0,0,-99,-99
"1762","calf","annoy",6,1,-99,-99,NA,NA,0,1,-99,-99
"1762","date","laugh",7,1,-99,-99,NA,NA,0,0,-99,-99
"1762","forest","knob",8,1,-99,-99,NA,NA,1,0,-99,-99
"1762","port","cinema",9,1,-99,-99,NA,NA,1,1,-99,-99
"1762","bullet","walkway",10,1,-99,-99,NA,NA,0,1,-99,-99
"1762","nerve","bumper",11,1,-99,-99,NA,NA,1,1,-99,-99
"1762","visit","glove",12,1,-99,-99,NA,NA,1,1,-99,-99
"1762","want","ascent",13,1,-99,-99,NA,NA,1,0,-99,-99
"1762","glue","force",14,1,-99,-99,NA,NA,1,1,-99,-99
"1762","climax","saucer",15,1,-99,-99,NA,NA,0,0,-99,-99
"1762","risk","zero",16,1,-99,-99,NA,NA,1,0,-99,-99
"1762","caring","skirt",17,1,-99,-99,NA,NA,1,1,-99,-99
"1762","shrink","mafia",18,1,-99,-99,NA,NA,0,1,-99,-99
"1762","smother","surgery",19,1,-99,-99,NA,NA,0,0,-99,-99
"1762","chicken","beet",20,1,-99,-99,NA,NA,0,0,-99,-99
"1762","capital","figure",21,1,-99,-99,NA,NA,1,1,-99,-99
"1762","mill","feast",22,1,-99,-99,NA,NA,1,1,-99,-99
"1762","prison","loaf",23,1,-99,-99,NA,NA,1,0,-99,-99
"1762","find","clown",24,1,-99,-99,NA,NA,1,1,-99,-99
"1762","rock","milk",25,1,-99,-99,NA,NA,0,1,-99,-99
"1762","knock","otter",26,1,-99,-99,NA,NA,1,0,-99,-99
"1762","pork","emperor",27,1,-99,-99,NA,NA,0,0,-99,-99
"1762","process","joker",28,1,-99,-99,NA,NA,1,0,-99,-99
"1762","plant","worm",29,1,-99,-99,NA,NA,0,1,-99,-99
"1762","fan","feature",30,1,-99,-99,NA,NA,0,1,-99,-99
"1762","remind","foam",31,1,-99,-99,NA,NA,0,0,-99,-99
"1762","banner","glide",32,1,-99,-99,NA,NA,1,0,-99,-99
"1762","collect","loyalty",33,1,-99,-99,NA,NA,1,1,-99,-99
"1762","link","crisis",34,1,-99,-99,NA,NA,0,1,-99,-99
"1762","bacon","feud",35,1,-99,-99,NA,NA,0,1,-99,-99
"1762","grip","beach",36,1,-99,-99,NA,NA,0,0,-99,-99
"1762","need","faucet",37,1,-99,-99,NA,NA,0,1,-99,-99
"1762","copy","bedroom",38,1,-99,-99,NA,NA,1,0,-99,-99
"1762","biology","temper",39,1,-99,-99,NA,NA,1,0,-99,-99
"1762","replace","roach",40,1,-99,-99,NA,NA,1,0,-99,-99
"1762","calf","annoy",1,2,-99,-99,NA,NA,0,1,-99,-99
"1762","prison","loaf",2,2,-99,-99,NA,NA,1,0,-99,-99
"1762","replace","roach",3,2,-99,-99,NA,NA,1,0,-99,-99
"1762","need","faucet",4,2,-99,-99,NA,NA,0,1,-99,-99
"1762","mill","feast",5,2,-99,-99,NA,NA,1,1,-99,-99
"1762","copy","bedroom",6,2,-99,-99,NA,NA,1,0,-99,-99
"1762","bacon","feud",7,2,-99,-99,NA,NA,0,1,-99,-99
"1762","capital","figure",8,2,-99,-99,NA,NA,1,1,-99,-99
"1762","want","ascent",9,2,-99,-99,NA,NA,1,0,-99,-99
"1762","rock","milk",10,2,-99,-99,NA,NA,0,1,-99,-99
"1762","fan","feature",11,2,-99,-99,NA,NA,0,1,-99,-99
"1762","bleach","ruin",12,2,-99,-99,NA,NA,1,1,-99,-99
"1762","collect","loyalty",13,2,-99,-99,NA,NA,1,1,-99,-99
"1762","caring","skirt",14,2,-99,-99,NA,NA,1,1,-99,-99
"1762","glue","force",15,2,-99,-99,NA,NA,1,1,-99,-99
"1762","nerve","bumper",16,2,-99,-99,NA,NA,1,1,-99,-99
"1762","visit","glove",17,2,-99,-99,NA,NA,1,1,-99,-99
"1762","anger","decay",18,2,-99,-99,NA,NA,0,0,-99,-99
"1762","remind","foam",19,2,-99,-99,NA,NA,0,0,-99,-99
"1762","grip","beach",20,2,-99,-99,NA,NA,0,0,-99,-99
"1762","fee","chowder",21,2,-99,-99,NA,NA,0,1,-99,-99
"1762","pork","emperor",22,2,-99,-99,NA,NA,0,0,-99,-99
"1762","bias","sirloin",23,2,-99,-99,NA,NA,0,0,-99,-99
"1762","port","cinema",24,2,-99,-99,NA,NA,1,1,-99,-99
"1762","chicken","beet",25,2,-99,-99,NA,NA,0,0,-99,-99
"1762","forest","knob",26,2,-99,-99,NA,NA,1,0,-99,-99
"1762","pea","bathtub",27,2,-99,-99,NA,NA,0,0,-99,-99
"1762","plant","worm",28,2,-99,-99,NA,NA,0,1,-99,-99
"1762","banner","glide",29,2,-99,-99,NA,NA,1,0,-99,-99
"1762","process","joker",30,2,-99,-99,NA,NA,1,0,-99,-99
"1762","knock","otter",31,2,-99,-99,NA,NA,1,0,-99,-99
"1762","shrink","mafia",32,2,-99,-99,NA,NA,0,1,-99,-99
"1762","find","clown",33,2,-99,-99,NA,NA,1,1,-99,-99
"1762","biology","temper",34,2,-99,-99,NA,NA,1,0,-99,-99
"1762","link","crisis",35,2,-99,-99,NA,NA,0,1,-99,-99
"1762","smother","surgery",36,2,-99,-99,NA,NA,0,0,-99,-99
"1762","risk","zero",37,2,-99,-99,NA,NA,1,0,-99,-99
"1762","climax","saucer",38,2,-99,-99,NA,NA,0,0,-99,-99
"1762","date","laugh",39,2,-99,-99,NA,NA,0,0,-99,-99
"1762","bullet","walkway",40,2,-99,-99,NA,NA,0,1,-99,-99
"1762","plant","worm",1,3,23,10.558,31,0.775,0,1,0,2.786
"1762","smother","surgery",2,3,77,4.83,34,0.85,0,0,1,7.871
"1762","port","cinema",3,3,1,4.573,1,0.025,1,1,1,1.839
"1762","process","joker",4,3,1,3.821,2,0.05,1,0,0,4.55
"1762","replace","roach",5,3,1,3.906,3,0.075,1,0,0,1.159
"1762","risk","zero",6,3,1,2.913,4,0.1,1,0,0,1.157
"1762","capital","figure",7,3,1,2.137,5,0.125,1,1,1,0.987
"1762","climax","saucer",8,3,100,2.583,35,0.875,0,0,1,1.417
"1762","bleach","ruin",9,3,1,3.021,6,0.15,1,1,1,2.397
"1762","prison","loaf",10,3,1,2.231,7,0.175,1,0,0,0.971
"1762","banner","glide",11,3,1,1.963,8,0.2,1,0,0,0.837
"1762","biology","temper",12,3,1,2.193,9,0.225,1,0,0,0.743
"1762","pea","bathtub",13,3,100,2.191,36,0.9,0,0,1,1.509
"1762","copy","bedroom",14,3,1,2.849,10,0.25,1,0,0,0.571
"1762","want","ascent",15,3,1,2.325,11,0.275,1,0,0,0.727
"1762","knock","otter",16,3,1,2.107,12,0.3,1,0,0,1.128
"1762","date","laugh",17,3,100,2.151,37,0.925,0,0,1,1.167
"1762","forest","knob",18,3,1,2.371,13,0.325,1,0,0,0.979
"1762","bacon","feud",19,3,1,2.191,14,0.35,0,1,0,1.157
"1762","shrink","mafia",20,3,1,2.199,15,0.375,0,1,0,2.177
"1762","link","crisis",21,3,3,2.731,30,0.75,0,1,0,1.331
"1762","fan","feature",22,3,1,7.181,16,0.4,0,1,0,0.727
"1762","need","faucet",23,3,1,2.395,17,0.425,0,1,0,1.049
"1762","fee","chowder",24,3,1,2.717,18,0.45,0,1,0,1.095
"1762","pork","emperor",25,3,100,2.491,38,0.95,0,0,1,1.197
"1762","rock","milk",26,3,1,1.909,19,0.475,0,1,0,0.673
"1762","calf","annoy",27,3,27,2.419,32,0.8,0,1,0,0.703
"1762","bias","sirloin",28,3,72,3.375,33,0.825,0,0,1,0.688
"1762","bullet","walkway",29,3,1,2.255,20,0.5,0,1,0,0.875
"1762","mill","feast",30,3,1,1.904,21,0.525,1,1,1,0.984
"1762","visit","glove",31,3,1,2.231,22,0.55,1,1,1,0.735
"1762","glue","force",32,3,1,1.683,23,0.575,1,1,1,0.719
"1762","anger","decay",33,3,100,2.765,39,0.975,0,0,1,0.679
"1762","caring","skirt",34,3,1,2.271,24,0.6,1,1,1,0.673
"1762","find","clown",35,3,1,1.754,25,0.625,1,1,1,0.617
"1762","collect","loyalty",36,3,1,3.679,26,0.65,1,1,1,0.525
"1762","chicken","beet",37,3,100,2.631,40,1,0,0,1,0.813
"1762","nerve","bumper",38,3,1,2.959,27,0.675,1,1,1,1.385
"1762","remind","foam",39,3,1,2.435,28,0.7,0,0,1,0.853
"1762","grip","beach",40,3,1,2.594,29,0.725,0,0,1,0.694
"1773","calf","annoy",1,1,-99,-99,NA,NA,0,1,-99,-99
"1773","banner","glide",2,1,-99,-99,NA,NA,1,1,-99,-99
"1773","glue","force",3,1,-99,-99,NA,NA,1,1,-99,-99
"1773","shrink","mafia",4,1,-99,-99,NA,NA,0,1,-99,-99
"1773","climax","saucer",5,1,-99,-99,NA,NA,1,1,-99,-99
"1773","port","cinema",6,1,-99,-99,NA,NA,0,0,-99,-99
"1773","replace","roach",7,1,-99,-99,NA,NA,1,1,-99,-99
"1773","bleach","ruin",8,1,-99,-99,NA,NA,1,1,-99,-99
"1773","smother","surgery",9,1,-99,-99,NA,NA,1,1,-99,-99
"1773","date","laugh",10,1,-99,-99,NA,NA,0,1,-99,-99
"1773","visit","glove",11,1,-99,-99,NA,NA,1,1,-99,-99
"1773","grip","beach",12,1,-99,-99,NA,NA,0,1,-99,-99
"1773","nerve","bumper",13,1,-99,-99,NA,NA,1,0,-99,-99
"1773","chicken","beet",14,1,-99,-99,NA,NA,1,0,-99,-99
"1773","pork","emperor",15,1,-99,-99,NA,NA,0,0,-99,-99
"1773","plant","worm",16,1,-99,-99,NA,NA,1,0,-99,-99
"1773","remind","foam",17,1,-99,-99,NA,NA,1,0,-99,-99
"1773","mill","feast",18,1,-99,-99,NA,NA,0,0,-99,-99
"1773","fee","chowder",19,1,-99,-99,NA,NA,0,1,-99,-99
"1773","collect","loyalty",20,1,-99,-99,NA,NA,0,0,-99,-99
"1773","biology","temper",21,1,-99,-99,NA,NA,0,1,-99,-99
"1773","risk","zero",22,1,-99,-99,NA,NA,1,0,-99,-99
"1773","forest","knob",23,1,-99,-99,NA,NA,0,0,-99,-99
"1773","caring","skirt",24,1,-99,-99,NA,NA,0,1,-99,-99
"1773","knock","otter",25,1,-99,-99,NA,NA,1,1,-99,-99
"1773","prison","loaf",26,1,-99,-99,NA,NA,0,0,-99,-99
"1773","bias","sirloin",27,1,-99,-99,NA,NA,1,1,-99,-99
"1773","rock","milk",28,1,-99,-99,NA,NA,1,0,-99,-99
"1773","bacon","feud",29,1,-99,-99,NA,NA,1,1,-99,-99
"1773","want","ascent",30,1,-99,-99,NA,NA,1,0,-99,-99
"1773","capital","figure",31,1,-99,-99,NA,NA,0,0,-99,-99
"1773","pea","bathtub",32,1,-99,-99,NA,NA,1,0,-99,-99
"1773","anger","decay",33,1,-99,-99,NA,NA,0,1,-99,-99
"1773","copy","bedroom",34,1,-99,-99,NA,NA,1,0,-99,-99
"1773","fan","feature",35,1,-99,-99,NA,NA,0,0,-99,-99
"1773","find","clown",36,1,-99,-99,NA,NA,0,1,-99,-99
"1773","process","joker",37,1,-99,-99,NA,NA,0,1,-99,-99
"1773","link","crisis",38,1,-99,-99,NA,NA,1,0,-99,-99
"1773","need","faucet",39,1,-99,-99,NA,NA,0,0,-99,-99
"1773","bullet","walkway",40,1,-99,-99,NA,NA,0,0,-99,-99
"1773","caring","skirt",1,2,-99,-99,NA,NA,0,1,-99,-99
"1773","rock","milk",2,2,-99,-99,NA,NA,1,0,-99,-99
"1773","smother","surgery",3,2,-99,-99,NA,NA,1,1,-99,-99
"1773","banner","glide",4,2,-99,-99,NA,NA,1,1,-99,-99
"1773","glue","force",5,2,-99,-99,NA,NA,1,1,-99,-99
"1773","risk","zero",6,2,-99,-99,NA,NA,1,0,-99,-99
"1773","plant","worm",7,2,-99,-99,NA,NA,1,0,-99,-99
"1773","shrink","mafia",8,2,-99,-99,NA,NA,0,1,-99,-99
"1773","calf","annoy",9,2,-99,-99,NA,NA,0,1,-99,-99
"1773","mill","feast",10,2,-99,-99,NA,NA,0,0,-99,-99
"1773","want","ascent",11,2,-99,-99,NA,NA,1,0,-99,-99
"1773","need","faucet",12,2,-99,-99,NA,NA,0,0,-99,-99
"1773","link","crisis",13,2,-99,-99,NA,NA,1,0,-99,-99
"1773","pea","bathtub",14,2,-99,-99,NA,NA,1,0,-99,-99
"1773","climax","saucer",15,2,-99,-99,NA,NA,1,1,-99,-99
"1773","knock","otter",16,2,-99,-99,NA,NA,1,1,-99,-99
"1773","prison","loaf",17,2,-99,-99,NA,NA,0,0,-99,-99
"1773","nerve","bumper",18,2,-99,-99,NA,NA,1,0,-99,-99
"1773","grip","beach",19,2,-99,-99,NA,NA,0,1,-99,-99
"1773","find","clown",20,2,-99,-99,NA,NA,0,1,-99,-99
"1773","pork","emperor",21,2,-99,-99,NA,NA,0,0,-99,-99
"1773","forest","knob",22,2,-99,-99,NA,NA,0,0,-99,-99
"1773","chicken","beet",23,2,-99,-99,NA,NA,1,0,-99,-99
"1773","port","cinema",24,2,-99,-99,NA,NA,0,0,-99,-99
"1773","copy","bedroom",25,2,-99,-99,NA,NA,1,0,-99,-99
"1773","visit","glove",26,2,-99,-99,NA,NA,1,1,-99,-99
"1773","process","joker",27,2,-99,-99,NA,NA,0,1,-99,-99
"1773","fee","chowder",28,2,-99,-99,NA,NA,0,1,-99,-99
"1773","bacon","feud",29,2,-99,-99,NA,NA,1,1,-99,-99
"1773","anger","decay",30,2,-99,-99,NA,NA,0,1,-99,-99
"1773","replace","roach",31,2,-99,-99,NA,NA,1,1,-99,-99
"1773","biology","temper",32,2,-99,-99,NA,NA,0,1,-99,-99
"1773","capital","figure",33,2,-99,-99,NA,NA,0,0,-99,-99
"1773","collect","loyalty",34,2,-99,-99,NA,NA,0,0,-99,-99
"1773","bullet","walkway",35,2,-99,-99,NA,NA,0,0,-99,-99
"1773","remind","foam",36,2,-99,-99,NA,NA,1,0,-99,-99
"1773","date","laugh",37,2,-99,-99,NA,NA,0,1,-99,-99
"1773","bias","sirloin",38,2,-99,-99,NA,NA,1,1,-99,-99
"1773","fan","feature",39,2,-99,-99,NA,NA,0,0,-99,-99
"1773","bleach","ruin",40,2,-99,-99,NA,NA,1,1,-99,-99
"1773","bullet","walkway",1,3,33,9.801,5,0.125,0,0,1,7.197
"1773","biology","temper",2,3,43,5.322,13,0.325,0,1,0,6.033
"1773","anger","decay",3,3,15,4.492,3,0.075,0,1,0,0.878
"1773","forest","knob",4,3,33,2.953,6,0.15,0,0,1,4.668
"1773","fan","feature",5,3,25,2.809,4,0.1,0,0,1,1.02
"1773","need","faucet",6,3,49,2.307,20,0.5,0,0,1,0.939
"1773","visit","glove",7,3,75,2.962,38,0.95,1,1,1,1.054
"1773","shrink","mafia",8,3,36,2.391,8,0.2,0,1,0,1.378
"1773","smother","surgery",9,3,60,2.142,29,0.725,1,1,1,0.706
"1773","capital","figure",10,3,48,2.079,18,0.45,0,0,1,0.685
"1773","port","cinema",11,3,48,1.905,19,0.475,0,0,1,0.697
"1773","prison","loaf",12,3,47,3.677,17,0.425,0,0,1,0.621
"1773","collect","loyalty",13,3,53,2.913,24,0.6,0,0,1,0.796
"1773","pork","emperor",14,3,50,2.351,23,0.575,0,0,1,0.845
"1773","bias","sirloin",15,3,57,3.019,27,0.675,1,1,1,0.99
"1773","rock","milk",16,3,44,1.746,15,0.375,1,0,0,0.814
"1773","mill","feast",17,3,49,1.714,21,0.525,0,0,1,0.735
"1773","bacon","feud",18,3,55,1.794,25,0.625,1,1,1,1.23
"1773","banner","glide",19,3,79,1.765,40,1,1,1,1,1.243
"1773","knock","otter",20,3,61,1.714,30,0.75,1,1,1,1.163
"1773","bleach","ruin",21,3,65,1.708,33,0.825,1,1,1,0.758
"1773","replace","roach",22,3,66,1.626,35,0.875,1,1,1,1.449
"1773","grip","beach",23,3,8,2.094,1,0.025,0,1,0,0.864
"1773","climax","saucer",24,3,77,4.937,39,0.975,1,1,1,1.442
"1773","glue","force",25,3,68,1.701,36,0.9,1,1,1,0.826
"1773","risk","zero",26,3,65,1.35,34,0.85,1,0,0,0.734
"1773","nerve","bumper",27,3,61,3.154,31,0.775,1,0,0,3.662
"1773","chicken","beet",28,3,55,1.873,26,0.65,1,0,0,1.102
"1773","want","ascent",29,3,49,2.165,22,0.55,1,0,0,1.427
"1773","link","crisis",30,3,61,1.714,32,0.8,1,0,0,1.811
"1773","plant","worm",31,3,57,3.317,28,0.7,1,0,0,0.655
"1773","copy","bedroom",32,3,69,2.362,37,0.925,1,0,0,0.686
"1773","process","joker",33,3,39,1.63,11,0.275,0,1,0,1.122
"1773","fee","chowder",34,3,38,1.484,10,0.25,0,1,0,0.767
"1773","calf","annoy",35,3,41,2.655,12,0.3,0,1,0,0.621
"1773","remind","foam",36,3,45,1.586,16,0.4,1,0,0,0.59
"1773","pea","bathtub",37,3,43,1.282,14,0.35,1,0,0,0.814
"1773","date","laugh",38,3,10,1.454,2,0.05,0,1,0,0.642
"1773","find","clown",39,3,34,1.422,7,0.175,0,1,0,0.767
"1773","caring","skirt",40,3,36,1.865,9,0.225,0,1,0,1.552
"1803","copy","bedroom",1,1,-99,-99,NA,NA,1,0,-99,-99
"1803","rock","milk",2,1,-99,-99,NA,NA,0,1,-99,-99
"1803","glue","force",3,1,-99,-99,NA,NA,0,1,-99,-99
"1803","chicken","beet",4,1,-99,-99,NA,NA,0,1,-99,-99
"1803","collect","loyalty",5,1,-99,-99,NA,NA,1,0,-99,-99
"1803","fan","feature",6,1,-99,-99,NA,NA,0,0,-99,-99
"1803","mill","feast",7,1,-99,-99,NA,NA,1,0,-99,-99
"1803","forest","knob",8,1,-99,-99,NA,NA,0,0,-99,-99
"1803","shrink","mafia",9,1,-99,-99,NA,NA,1,0,-99,-99
"1803","bias","sirloin",10,1,-99,-99,NA,NA,1,1,-99,-99
"1803","knock","otter",11,1,-99,-99,NA,NA,1,0,-99,-99
"1803","capital","figure",12,1,-99,-99,NA,NA,1,0,-99,-99
"1803","need","faucet",13,1,-99,-99,NA,NA,0,1,-99,-99
"1803","pea","bathtub",14,1,-99,-99,NA,NA,0,0,-99,-99
"1803","find","clown",15,1,-99,-99,NA,NA,0,1,-99,-99
"1803","link","crisis",16,1,-99,-99,NA,NA,0,0,-99,-99
"1803","climax","saucer",17,1,-99,-99,NA,NA,0,1,-99,-99
"1803","date","laugh",18,1,-99,-99,NA,NA,1,1,-99,-99
"1803","process","joker",19,1,-99,-99,NA,NA,1,0,-99,-99
"1803","pork","emperor",20,1,-99,-99,NA,NA,1,1,-99,-99
"1803","bleach","ruin",21,1,-99,-99,NA,NA,1,0,-99,-99
"1803","replace","roach",22,1,-99,-99,NA,NA,1,0,-99,-99
"1803","bullet","walkway",23,1,-99,-99,NA,NA,1,1,-99,-99
"1803","plant","worm",24,1,-99,-99,NA,NA,0,0,-99,-99
"1803","smother","surgery",25,1,-99,-99,NA,NA,1,1,-99,-99
"1803","remind","foam",26,1,-99,-99,NA,NA,0,0,-99,-99
"1803","caring","skirt",27,1,-99,-99,NA,NA,0,1,-99,-99
"1803","want","ascent",28,1,-99,-99,NA,NA,0,0,-99,-99
"1803","anger","decay",29,1,-99,-99,NA,NA,1,1,-99,-99
"1803","prison","loaf",30,1,-99,-99,NA,NA,1,1,-99,-99
"1803","banner","glide",31,1,-99,-99,NA,NA,0,1,-99,-99
"1803","visit","glove",32,1,-99,-99,NA,NA,0,1,-99,-99
"1803","calf","annoy",33,1,-99,-99,NA,NA,0,0,-99,-99
"1803","bacon","feud",34,1,-99,-99,NA,NA,0,0,-99,-99
"1803","port","cinema",35,1,-99,-99,NA,NA,0,0,-99,-99
"1803","nerve","bumper",36,1,-99,-99,NA,NA,0,1,-99,-99
"1803","fee","chowder",37,1,-99,-99,NA,NA,1,0,-99,-99
"1803","biology","temper",38,1,-99,-99,NA,NA,1,1,-99,-99
"1803","grip","beach",39,1,-99,-99,NA,NA,1,1,-99,-99
"1803","risk","zero",40,1,-99,-99,NA,NA,1,1,-99,-99
"1803","find","clown",1,2,-99,-99,NA,NA,0,1,-99,-99
"1803","link","crisis",2,2,-99,-99,NA,NA,0,0,-99,-99
"1803","replace","roach",3,2,-99,-99,NA,NA,1,0,-99,-99
"1803","prison","loaf",4,2,-99,-99,NA,NA,1,1,-99,-99
"1803","bullet","walkway",5,2,-99,-99,NA,NA,1,1,-99,-99
"1803","knock","otter",6,2,-99,-99,NA,NA,1,0,-99,-99
"1803","pork","emperor",7,2,-99,-99,NA,NA,1,1,-99,-99
"1803","port","cinema",8,2,-99,-99,NA,NA,0,0,-99,-99
"1803","capital","figure",9,2,-99,-99,NA,NA,1,0,-99,-99
"1803","bacon","feud",10,2,-99,-99,NA,NA,0,0,-99,-99
"1803","grip","beach",11,2,-99,-99,NA,NA,1,1,-99,-99
"1803","fan","feature",12,2,-99,-99,NA,NA,0,0,-99,-99
"1803","banner","glide",13,2,-99,-99,NA,NA,0,1,-99,-99
"1803","need","faucet",14,2,-99,-99,NA,NA,0,1,-99,-99
"1803","forest","knob",15,2,-99,-99,NA,NA,0,0,-99,-99
"1803","mill","feast",16,2,-99,-99,NA,NA,1,0,-99,-99
"1803","smother","surgery",17,2,-99,-99,NA,NA,1,1,-99,-99
"1803","climax","saucer",18,2,-99,-99,NA,NA,0,1,-99,-99
"1803","pea","bathtub",19,2,-99,-99,NA,NA,0,0,-99,-99
"1803","want","ascent",20,2,-99,-99,NA,NA,0,0,-99,-99
"1803","visit","glove",21,2,-99,-99,NA,NA,0,1,-99,-99
"1803","plant","worm",22,2,-99,-99,NA,NA,0,0,-99,-99
"1803","process","joker",23,2,-99,-99,NA,NA,1,0,-99,-99
"1803","shrink","mafia",24,2,-99,-99,NA,NA,1,0,-99,-99
"1803","date","laugh",25,2,-99,-99,NA,NA,1,1,-99,-99
"1803","caring","skirt",26,2,-99,-99,NA,NA,0,1,-99,-99
"1803","anger","decay",27,2,-99,-99,NA,NA,1,1,-99,-99
"1803","bleach","ruin",28,2,-99,-99,NA,NA,1,0,-99,-99
"1803","glue","force",29,2,-99,-99,NA,NA,0,1,-99,-99
"1803","risk","zero",30,2,-99,-99,NA,NA,1,1,-99,-99
"1803","chicken","beet",31,2,-99,-99,NA,NA,0,1,-99,-99
"1803","nerve","bumper",32,2,-99,-99,NA,NA,0,1,-99,-99
"1803","calf","annoy",33,2,-99,-99,NA,NA,0,0,-99,-99
"1803","bias","sirloin",34,2,-99,-99,NA,NA,1,1,-99,-99
"1803","copy","bedroom",35,2,-99,-99,NA,NA,1,0,-99,-99
"1803","remind","foam",36,2,-99,-99,NA,NA,0,0,-99,-99
"1803","rock","milk",37,2,-99,-99,NA,NA,0,1,-99,-99
"1803","collect","loyalty",38,2,-99,-99,NA,NA,1,0,-99,-99
"1803","biology","temper",39,2,-99,-99,NA,NA,1,1,-99,-99
"1803","fee","chowder",40,2,-99,-99,NA,NA,1,0,-99,-99
"1803","risk","zero",1,3,100,20.909,37,0.925,1,1,1,8.589
"1803","caring","skirt",2,3,1,11.046,1,0.025,0,1,0,2.775
"1803","glue","force",3,3,1,6.543,2,0.05,0,1,0,2.023
"1803","nerve","bumper",4,3,1,5.015,3,0.075,0,1,0,0.83
"1803","banner","glide",5,3,1,2.487,4,0.1,0,1,0,3.911
"1803","grip","beach",6,3,100,9.647,38,0.95,1,1,1,1.247
"1803","anger","decay",7,3,100,5.758,39,0.975,1,1,1,1.071
"1803","copy","bedroom",8,3,25,10.375,33,0.825,1,0,0,1.303
"1803","rock","milk",9,3,1,7.663,5,0.125,0,1,0,1.064
"1803","smother","surgery",10,3,21,18.95,32,0.8,1,1,1,1.223
"1803","bias","sirloin",11,3,25,5.255,34,0.85,1,1,1,5.207
"1803","chicken","beet",12,3,1,19.031,6,0.15,0,1,0,0.83
"1803","need","faucet",13,3,1,4.047,7,0.175,0,1,0,1.276
"1803","visit","glove",14,3,1,6.543,8,0.2,0,1,0,1.072
"1803","climax","saucer",15,3,1,13.182,9,0.225,0,1,0,0.839
"1803","date","laugh",16,3,72,6.143,35,0.875,1,1,1,0.999
"1803","find","clown",17,3,1,3.567,10,0.25,0,1,0,1.839
"1803","shrink","mafia",18,3,1,6.063,11,0.275,1,0,0,1.159
"1803","capital","figure",19,3,1,8.247,12,0.3,1,0,0,1.263
"1803","biology","temper",20,3,74,11.111,36,0.9,1,1,1,0.912
"1803","bleach","ruin",21,3,1,16.086,13,0.325,1,0,0,1.095
"1803","replace","roach",22,3,1,3.127,14,0.35,1,0,0,1.247
"1803","mill","feast",23,3,2,2.983,31,0.775,1,0,0,1.423
"1803","knock","otter",24,3,1,3.617,15,0.375,1,0,0,1.285
"1803","collect","loyalty",25,3,1,15.527,16,0.4,1,0,0,0.599
"1803","process","joker",26,3,1,6.591,17,0.425,1,0,0,0.734
"1803","fee","chowder",27,3,1,7.712,18,0.45,1,0,0,0.838
"1803","prison","loaf",28,3,100,5.367,40,1,1,1,1,1.624
"1803","bacon","feud",29,3,1,2.91,19,0.475,0,0,1,2.863
"1803","fan","feature",30,3,1,2.615,20,0.5,0,0,1,0.767
"1803","pea","bathtub",31,3,1,2.231,21,0.525,0,0,1,0.679
"1803","link","crisis",32,3,1,1.983,22,0.55,0,0,1,0.719
"1803","forest","knob",33,3,1,2.079,23,0.575,0,0,1,0.703
"1803","calf","annoy",34,3,1,2.015,24,0.6,0,0,1,0.711
"1803","remind","foam",35,3,1,2.039,25,0.625,0,0,1,0.798
"1803","plant","worm",36,3,1,2.799,26,0.65,0,0,1,0.695
"1803","want","ascent",37,3,1,1.768,27,0.675,0,0,1,0.814
"1803","port","cinema",38,3,1,2.072,28,0.7,0,0,1,0.888
"1803","pork","emperor",39,3,1,2.151,29,0.725,1,1,1,0.839
"1803","bullet","walkway",40,3,1,4.6,30,0.75,1,1,1,0.727
"1818","biology","temper",1,1,-99,-99,NA,NA,0,0,-99,-99
"1818","remind","foam",2,1,-99,-99,NA,NA,0,1,-99,-99
"1818","replace","roach",3,1,-99,-99,NA,NA,0,1,-99,-99
"1818","visit","glove",4,1,-99,-99,NA,NA,0,1,-99,-99
"1818","caring","skirt",5,1,-99,-99,NA,NA,1,0,-99,-99
"1818","anger","decay",6,1,-99,-99,NA,NA,0,0,-99,-99
"1818","pea","bathtub",7,1,-99,-99,NA,NA,0,0,-99,-99
"1818","glue","force",8,1,-99,-99,NA,NA,0,1,-99,-99
"1818","find","clown",9,1,-99,-99,NA,NA,1,1,-99,-99
"1818","capital","figure",10,1,-99,-99,NA,NA,0,0,-99,-99
"1818","calf","annoy",11,1,-99,-99,NA,NA,0,1,-99,-99
"1818","bleach","ruin",12,1,-99,-99,NA,NA,1,0,-99,-99
"1818","bullet","walkway",13,1,-99,-99,NA,NA,0,0,-99,-99
"1818","banner","glide",14,1,-99,-99,NA,NA,0,1,-99,-99
"1818","knock","otter",15,1,-99,-99,NA,NA,1,1,-99,-99
"1818","mill","feast",16,1,-99,-99,NA,NA,1,1,-99,-99
"1818","rock","milk",17,1,-99,-99,NA,NA,1,0,-99,-99
"1818","process","joker",18,1,-99,-99,NA,NA,1,1,-99,-99
"1818","shrink","mafia",19,1,-99,-99,NA,NA,0,1,-99,-99
"1818","prison","loaf",20,1,-99,-99,NA,NA,1,1,-99,-99
"1818","link","crisis",21,1,-99,-99,NA,NA,1,1,-99,-99
"1818","bias","sirloin",22,1,-99,-99,NA,NA,1,1,-99,-99
"1818","fee","chowder",23,1,-99,-99,NA,NA,1,0,-99,-99
"1818","grip","beach",24,1,-99,-99,NA,NA,1,0,-99,-99
"1818","want","ascent",25,1,-99,-99,NA,NA,0,1,-99,-99
"1818","climax","saucer",26,1,-99,-99,NA,NA,0,0,-99,-99
"1818","need","faucet",27,1,-99,-99,NA,NA,1,0,-99,-99
"1818","pork","emperor",28,1,-99,-99,NA,NA,0,0,-99,-99
"1818","nerve","bumper",29,1,-99,-99,NA,NA,0,1,-99,-99
"1818","bacon","feud",30,1,-99,-99,NA,NA,1,1,-99,-99
"1818","risk","zero",31,1,-99,-99,NA,NA,0,0,-99,-99
"1818","copy","bedroom",32,1,-99,-99,NA,NA,1,0,-99,-99
"1818","forest","knob",33,1,-99,-99,NA,NA,1,0,-99,-99
"1818","chicken","beet",34,1,-99,-99,NA,NA,1,1,-99,-99
"1818","smother","surgery",35,1,-99,-99,NA,NA,0,1,-99,-99
"1818","date","laugh",36,1,-99,-99,NA,NA,1,0,-99,-99
"1818","collect","loyalty",37,1,-99,-99,NA,NA,0,0,-99,-99
"1818","plant","worm",38,1,-99,-99,NA,NA,0,0,-99,-99
"1818","fan","feature",39,1,-99,-99,NA,NA,1,0,-99,-99
"1818","port","cinema",40,1,-99,-99,NA,NA,1,1,-99,-99
"1818","nerve","bumper",1,2,-99,-99,NA,NA,0,1,-99,-99
"1818","link","crisis",2,2,-99,-99,NA,NA,1,1,-99,-99
"1818","shrink","mafia",3,2,-99,-99,NA,NA,0,1,-99,-99
"1818","mill","feast",4,2,-99,-99,NA,NA,1,1,-99,-99
"1818","bleach","ruin",5,2,-99,-99,NA,NA,1,0,-99,-99
"1818","calf","annoy",6,2,-99,-99,NA,NA,0,1,-99,-99
"1818","fan","feature",7,2,-99,-99,NA,NA,1,0,-99,-99
"1818","bias","sirloin",8,2,-99,-99,NA,NA,1,1,-99,-99
"1818","process","joker",9,2,-99,-99,NA,NA,1,1,-99,-99
"1818","grip","beach",10,2,-99,-99,NA,NA,1,0,-99,-99
"1818","plant","worm",11,2,-99,-99,NA,NA,0,0,-99,-99
"1818","pork","emperor",12,2,-99,-99,NA,NA,0,0,-99,-99
"1818","knock","otter",13,2,-99,-99,NA,NA,1,1,-99,-99
"1818","climax","saucer",14,2,-99,-99,NA,NA,0,0,-99,-99
"1818","risk","zero",15,2,-99,-99,NA,NA,0,0,-99,-99
"1818","bacon","feud",16,2,-99,-99,NA,NA,1,1,-99,-99
"1818","fee","chowder",17,2,-99,-99,NA,NA,1,0,-99,-99
"1818","caring","skirt",18,2,-99,-99,NA,NA,1,0,-99,-99
"1818","replace","roach",19,2,-99,-99,NA,NA,0,1,-99,-99
"1818","rock","milk",20,2,-99,-99,NA,NA,1,0,-99,-99
"1818","want","ascent",21,2,-99,-99,NA,NA,0,1,-99,-99
"1818","port","cinema",22,2,-99,-99,NA,NA,1,1,-99,-99
"1818","smother","surgery",23,2,-99,-99,NA,NA,0,1,-99,-99
"1818","forest","knob",24,2,-99,-99,NA,NA,1,0,-99,-99
"1818","bullet","walkway",25,2,-99,-99,NA,NA,0,0,-99,-99
"1818","glue","force",26,2,-99,-99,NA,NA,0,1,-99,-99
"1818","need","faucet",27,2,-99,-99,NA,NA,1,0,-99,-99
"1818","prison","loaf",28,2,-99,-99,NA,NA,1,1,-99,-99
"1818","biology","temper",29,2,-99,-99,NA,NA,0,0,-99,-99
"1818","find","clown",30,2,-99,-99,NA,NA,1,1,-99,-99
"1818","banner","glide",31,2,-99,-99,NA,NA,0,1,-99,-99
"1818","capital","figure",32,2,-99,-99,NA,NA,0,0,-99,-99
"1818","anger","decay",33,2,-99,-99,NA,NA,0,0,-99,-99
"1818","pea","bathtub",34,2,-99,-99,NA,NA,0,0,-99,-99
"1818","remind","foam",35,2,-99,-99,NA,NA,0,1,-99,-99
"1818","copy","bedroom",36,2,-99,-99,NA,NA,1,0,-99,-99
"1818","visit","glove",37,2,-99,-99,NA,NA,0,1,-99,-99
"1818","collect","loyalty",38,2,-99,-99,NA,NA,0,0,-99,-99
"1818","chicken","beet",39,2,-99,-99,NA,NA,1,1,-99,-99
"1818","date","laugh",40,2,-99,-99,NA,NA,1,0,-99,-99
"1818","bleach","ruin",1,3,1,7.18,1,0.025,1,0,0,11.604
"1818","nerve","bumper",2,3,9,5.079,24,0.6,0,1,0,8.453
"1818","want","ascent",3,3,6,3.437,21,0.525,0,1,0,0.776
"1818","caring","skirt",4,3,1,3.824,2,0.05,1,0,0,0.902
"1818","climax","saucer",5,3,39,6.516,33,0.825,0,0,1,0.664
"1818","date","laugh",6,3,1,4.326,3,0.075,1,0,0,0.89
"1818","glue","force",7,3,8,2.469,23,0.575,0,1,0,0.794
"1818","biology","temper",8,3,69,3.477,36,0.9,0,0,1,0.767
"1818","smother","surgery",9,3,33,3.051,32,0.8,0,1,0,0.557
"1818","banner","glide",10,3,7,3.789,22,0.55,0,1,0,0.89
"1818","fan","feature",11,3,1,2.062,4,0.1,1,0,0,0.817
"1818","risk","zero",12,3,100,2.564,38,0.95,0,0,1,0.671
"1818","grip","beach",13,3,1,5.03,5,0.125,1,0,0,0.483
"1818","remind","foam",14,3,25,3.881,30,0.75,0,1,0,0.675
"1818","copy","bedroom",15,3,1,2.575,6,0.15,1,0,0,0.97
"1818","calf","annoy",16,3,12,2.658,25,0.625,0,1,0,0.721
"1818","pea","bathtub",17,3,79,3.461,37,0.925,0,0,1,0.467
"1818","forest","knob",18,3,1,2.489,7,0.175,1,0,0,0.591
"1818","shrink","mafia",19,3,23,2.314,29,0.725,0,1,0,0.717
"1818","fee","chowder",20,3,1,2.989,8,0.2,1,0,0,0.636
"1818","bullet","walkway",21,3,57,3.101,34,0.85,0,0,1,0.783
"1818","replace","roach",22,3,17,3.023,27,0.675,0,1,0,0.749
"1818","capital","figure",23,3,59,6.744,35,0.875,0,0,1,0.678
"1818","rock","milk",24,3,1,2.079,9,0.225,1,0,0,0.71
"1818","need","faucet",25,3,1,2.921,10,0.25,1,0,0,0.865
"1818","visit","glove",26,3,1,2.705,11,0.275,0,1,0,0.581
"1818","chicken","beet",27,3,1,1.961,12,0.3,1,1,1,1.308
"1818","bias","sirloin",28,3,1,2.1,13,0.325,1,1,1,0.621
"1818","bacon","feud",29,3,1,1.923,14,0.35,1,1,1,1.004
"1818","process","joker",30,3,1,1.968,15,0.375,1,1,1,0.561
"1818","collect","loyalty",31,3,100,4.938,39,0.975,0,0,1,0.582
"1818","knock","otter",32,3,1,1.855,16,0.4,1,1,1,0.524
"1818","plant","worm",33,3,18,1.978,28,0.7,0,0,1,0.533
"1818","port","cinema",34,3,1,1.773,17,0.425,1,1,1,0.634
"1818","prison","loaf",35,3,14,1.981,26,0.65,1,1,1,0.526
"1818","pork","emperor",36,3,29,2.05,31,0.775,0,0,1,0.643
"1818","find","clown",37,3,1,1.878,18,0.45,1,1,1,0.685
"1818","anger","decay",38,3,100,2.069,40,1,0,0,1,0.626
"1818","link","crisis",39,3,1,1.887,19,0.475,1,1,1,0.554
"1818","mill","feast",40,3,1,4.96,20,0.5,1,1,1,0.588
"2026","shrink","mafia",1,1,-99,-99,NA,NA,1,1,-99,-99
"2026","visit","glove",2,1,-99,-99,NA,NA,1,1,-99,-99
"2026","date","laugh",3,1,-99,-99,NA,NA,1,0,-99,-99
"2026","biology","temper",4,1,-99,-99,NA,NA,0,1,-99,-99
"2026","plant","worm",5,1,-99,-99,NA,NA,1,0,-99,-99
"2026","copy","bedroom",6,1,-99,-99,NA,NA,1,1,-99,-99
"2026","calf","annoy",7,1,-99,-99,NA,NA,0,1,-99,-99
"2026","climax","saucer",8,1,-99,-99,NA,NA,0,1,-99,-99
"2026","chicken","beet",9,1,-99,-99,NA,NA,0,0,-99,-99
"2026","remind","foam",10,1,-99,-99,NA,NA,0,0,-99,-99
"2026","pork","emperor",11,1,-99,-99,NA,NA,0,0,-99,-99
"2026","smother","surgery",12,1,-99,-99,NA,NA,1,0,-99,-99
"2026","rock","milk",13,1,-99,-99,NA,NA,1,1,-99,-99
"2026","replace","roach",14,1,-99,-99,NA,NA,1,0,-99,-99
"2026","link","crisis",15,1,-99,-99,NA,NA,0,1,-99,-99
"2026","mill","feast",16,1,-99,-99,NA,NA,1,1,-99,-99
"2026","collect","loyalty",17,1,-99,-99,NA,NA,1,0,-99,-99
"2026","risk","zero",18,1,-99,-99,NA,NA,0,0,-99,-99
"2026","pea","bathtub",19,1,-99,-99,NA,NA,1,1,-99,-99
"2026","glue","force",20,1,-99,-99,NA,NA,0,1,-99,-99
"2026","banner","glide",21,1,-99,-99,NA,NA,0,1,-99,-99
"2026","capital","figure",22,1,-99,-99,NA,NA,0,1,-99,-99
"2026","bias","sirloin",23,1,-99,-99,NA,NA,0,1,-99,-99
"2026","port","cinema",24,1,-99,-99,NA,NA,0,0,-99,-99
"2026","need","faucet",25,1,-99,-99,NA,NA,0,0,-99,-99
"2026","caring","skirt",26,1,-99,-99,NA,NA,0,1,-99,-99
"2026","want","ascent",27,1,-99,-99,NA,NA,0,0,-99,-99
"2026","prison","loaf",28,1,-99,-99,NA,NA,0,0,-99,-99
"2026","bullet","walkway",29,1,-99,-99,NA,NA,0,1,-99,-99
"2026","fan","feature",30,1,-99,-99,NA,NA,1,0,-99,-99
"2026","process","joker",31,1,-99,-99,NA,NA,1,0,-99,-99
"2026","bleach","ruin",32,1,-99,-99,NA,NA,1,1,-99,-99
"2026","fee","chowder",33,1,-99,-99,NA,NA,0,0,-99,-99
"2026","grip","beach",34,1,-99,-99,NA,NA,1,1,-99,-99
"2026","forest","knob",35,1,-99,-99,NA,NA,1,0,-99,-99
"2026","find","clown",36,1,-99,-99,NA,NA,1,1,-99,-99
"2026","knock","otter",37,1,-99,-99,NA,NA,1,1,-99,-99
"2026","nerve","bumper",38,1,-99,-99,NA,NA,1,0,-99,-99
"2026","anger","decay",39,1,-99,-99,NA,NA,0,0,-99,-99
"2026","bacon","feud",40,1,-99,-99,NA,NA,1,0,-99,-99
"2026","mill","feast",1,2,-99,-99,NA,NA,1,1,-99,-99
"2026","plant","worm",2,2,-99,-99,NA,NA,1,0,-99,-99
"2026","glue","force",3,2,-99,-99,NA,NA,0,1,-99,-99
"2026","visit","glove",4,2,-99,-99,NA,NA,1,1,-99,-99
"2026","nerve","bumper",5,2,-99,-99,NA,NA,1,0,-99,-99
"2026","risk","zero",6,2,-99,-99,NA,NA,0,0,-99,-99
"2026","bullet","walkway",7,2,-99,-99,NA,NA,0,1,-99,-99
"2026","date","laugh",8,2,-99,-99,NA,NA,1,0,-99,-99
"2026","bias","sirloin",9,2,-99,-99,NA,NA,0,1,-99,-99
"2026","prison","loaf",10,2,-99,-99,NA,NA,0,0,-99,-99
"2026","process","joker",11,2,-99,-99,NA,NA,1,0,-99,-99
"2026","collect","loyalty",12,2,-99,-99,NA,NA,1,0,-99,-99
"2026","capital","figure",13,2,-99,-99,NA,NA,0,1,-99,-99
"2026","shrink","mafia",14,2,-99,-99,NA,NA,1,1,-99,-99
"2026","anger","decay",15,2,-99,-99,NA,NA,0,0,-99,-99
"2026","knock","otter",16,2,-99,-99,NA,NA,1,1,-99,-99
"2026","fee","chowder",17,2,-99,-99,NA,NA,0,0,-99,-99
"2026","find","clown",18,2,-99,-99,NA,NA,1,1,-99,-99
"2026","bleach","ruin",19,2,-99,-99,NA,NA,1,1,-99,-99
"2026","climax","saucer",20,2,-99,-99,NA,NA,0,1,-99,-99
"2026","chicken","beet",21,2,-99,-99,NA,NA,0,0,-99,-99
"2026","bacon","feud",22,2,-99,-99,NA,NA,1,0,-99,-99
"2026","fan","feature",23,2,-99,-99,NA,NA,1,0,-99,-99
"2026","copy","bedroom",24,2,-99,-99,NA,NA,1,1,-99,-99
"2026","calf","annoy",25,2,-99,-99,NA,NA,0,1,-99,-99
"2026","link","crisis",26,2,-99,-99,NA,NA,0,1,-99,-99
"2026","pork","emperor",27,2,-99,-99,NA,NA,0,0,-99,-99
"2026","port","cinema",28,2,-99,-99,NA,NA,0,0,-99,-99
"2026","remind","foam",29,2,-99,-99,NA,NA,0,0,-99,-99
"2026","rock","milk",30,2,-99,-99,NA,NA,1,1,-99,-99
"2026","grip","beach",31,2,-99,-99,NA,NA,1,1,-99,-99
"2026","want","ascent",32,2,-99,-99,NA,NA,0,0,-99,-99
"2026","pea","bathtub",33,2,-99,-99,NA,NA,1,1,-99,-99
"2026","need","faucet",34,2,-99,-99,NA,NA,0,0,-99,-99
"2026","biology","temper",35,2,-99,-99,NA,NA,0,1,-99,-99
"2026","forest","knob",36,2,-99,-99,NA,NA,1,0,-99,-99
"2026","smother","surgery",37,2,-99,-99,NA,NA,1,0,-99,-99
"2026","replace","roach",38,2,-99,-99,NA,NA,1,0,-99,-99
"2026","caring","skirt",39,2,-99,-99,NA,NA,0,1,-99,-99
"2026","banner","glide",40,2,-99,-99,NA,NA,0,1,-99,-99
"2026","risk","zero",1,3,85,12.363,25,0.625,0,0,1,11.763
"2026","find","clown",2,3,81,5.784,15,0.375,1,1,1,2.877
"2026","fee","chowder",3,3,86,3.939,29,0.725,0,0,1,1.955
"2026","pork","emperor",4,3,85,4.991,26,0.65,0,0,1,1.479
"2026","grip","beach",5,3,84,3.33,23,0.575,1,1,1,1.531
"2026","need","faucet",6,3,86,4.052,30,0.75,0,0,1,2.197
"2026","want","ascent",7,3,95,4.362,37,0.925,0,0,1,1.901
"2026","knock","otter",8,3,61,3.929,1,0.025,1,1,1,1.843
"2026","anger","decay",9,3,88,4.281,32,0.8,0,0,1,1.93
"2026","mill","feast",10,3,61,3.109,2,0.05,1,1,1,1.953
"2026","visit","glove",11,3,83,3.029,22,0.55,1,1,1,1.425
"2026","prison","loaf",12,3,86,2.922,31,0.775,0,0,1,1.411
"2026","pea","bathtub",13,3,76,2.474,10,0.25,1,1,1,1.496
"2026","port","cinema",14,3,92,3.204,36,0.9,0,0,1,1.855
"2026","rock","milk",15,3,71,2.975,3,0.075,1,1,1,1.269
"2026","chicken","beet",16,3,84,3.557,24,0.6,0,0,1,1.508
"2026","remind","foam",17,3,97,3.592,39,0.975,0,0,1,1.21
"2026","copy","bedroom",18,3,81,2.947,16,0.4,1,1,1,1.39
"2026","shrink","mafia",19,3,73,2.597,6,0.15,1,1,1,1.818
"2026","bleach","ruin",20,3,81,2.61,17,0.425,1,1,1,1.513
"2026","banner","glide",21,3,85,2.737,27,0.675,0,1,0,12.786
"2026","fan","feature",22,3,73,7.163,7,0.175,1,0,0,2.539
"2026","bacon","feud",23,3,77,5.582,11,0.275,1,0,0,3.539
"2026","forest","knob",24,3,81,8.263,18,0.45,1,0,0,2.094
"2026","bullet","walkway",25,3,91,3.657,34,0.85,0,1,0,1.357
"2026","date","laugh",26,3,78,3.236,12,0.3,1,0,0,1.461
"2026","calf","annoy",27,3,81,2.743,19,0.475,0,1,0,1.286
"2026","collect","loyalty",28,3,75,3.275,8,0.2,1,0,0,1.355
"2026","caring","skirt",29,3,91,4.208,35,0.875,0,1,0,1.286
"2026","replace","roach",30,3,71,2.82,4,0.1,1,0,0,1.936
"2026","glue","force",31,3,95,3.662,38,0.95,0,1,0,1.35
"2026","plant","worm",32,3,78,2.688,13,0.325,1,0,0,1.221
"2026","smother","surgery",33,3,80,2.53,14,0.35,1,0,0,1.175
"2026","bias","sirloin",34,3,99,3.395,40,1,0,1,0,1.33
"2026","climax","saucer",35,3,81,2.516,20,0.5,0,1,0,0.989
"2026","capital","figure",36,3,85,2.863,28,0.7,0,1,0,1.389
"2026","link","crisis",37,3,89,4.487,33,0.825,0,1,0,1.766
"2026","biology","temper",38,3,81,2.768,21,0.525,0,1,0,1.468
"2026","nerve","bumper",39,3,71,3.047,5,0.125,1,0,0,1.574
"2026","process","joker",40,3,75,2.896,9,0.225,1,0,0,1.133
"2035","bacon","feud",1,1,-99,-99,NA,NA,0,0,-99,-99
"2035","grip","beach",2,1,-99,-99,NA,NA,1,0,-99,-99
"2035","bleach","ruin",3,1,-99,-99,NA,NA,1,0,-99,-99
"2035","mill","feast",4,1,-99,-99,NA,NA,1,1,-99,-99
"2035","bullet","walkway",5,1,-99,-99,NA,NA,1,0,-99,-99
"2035","pea","bathtub",6,1,-99,-99,NA,NA,0,0,-99,-99
"2035","port","cinema",7,1,-99,-99,NA,NA,1,1,-99,-99
"2035","link","crisis",8,1,-99,-99,NA,NA,0,1,-99,-99
"2035","copy","bedroom",9,1,-99,-99,NA,NA,1,0,-99,-99
"2035","pork","emperor",10,1,-99,-99,NA,NA,0,1,-99,-99
"2035","nerve","bumper",11,1,-99,-99,NA,NA,1,0,-99,-99
