"subn","word1","word2","trial","list","jol","jolrt","jolrank","jolrankp","practice","honor","choice","choicert","restudyresp","restudyacc","restudyrtfirst","restudyrt","response","testacc","rtfirst","rt"
"1053","rock","milk",31,1,21,10.505,17,0.425,1,0,0,0.831,NA,NA,NA,NA,"beach",0,3.375,7.255
"1053","anger","decay",3,1,20,8.872,15,0.375,1,0,0,0.928,NA,NA,NA,NA,"skip",0,15.666,18.634
"1053","smother","surgery",8,1,75,4.896,27,0.675,1,0,0,1.48,NA,NA,NA,NA,"surgery",1,2.136,5.776
"1053","glue","force",10,1,21,3.728,18,0.45,0,0,1,0.776,NA,NA,NA,NA,"skip",0,7.713,10.345
"1053","calf","annoy",2,1,35,10.24,24,0.6,1,0,0,1.8,NA,NA,NA,NA,"skip",0,20.067,22.131
"1053","banner","glide",29,1,16,7.168,8,0.2,0,1,0,0.888,NA,NA,NA,NA,"glide",1,7.217,11.753
"1053","biology","temper",1,1,62,9.433,25,0.625,0,0,1,0.863,NA,NA,NA,NA,"temper",1,2.416,4.616
"1053","shrink","mafia",25,1,12,7.793,3,0.075,0,1,0,0.863,NA,NA,NA,NA,"mafia",1,3.456,5.041
"1053","capital","figure",27,1,86,7.176,31,0.775,1,1,1,1.207,NA,NA,NA,NA,"figure",1,1.72,4.152
"1053","bacon","feud",19,1,89,4.808,35,0.875,1,1,1,1.448,NA,NA,NA,NA,"feud",1,1.903,4.472
"1053","remind","foam",6,1,27,11.033,23,0.575,1,0,0,1.216,NA,NA,NA,NA,"skip",0,4.423,5.976
"1053","copy","bedroom",36,1,18,7.745,12,0.3,1,0,0,0.992,NA,NA,NA,NA,"skip",0,3.552,4.888
"1053","chicken","beet",28,1,89,4.536,34,0.85,1,1,1,0.984,NA,NA,NA,NA,"beet",1,1.857,3.264
"1053","fan","feature",12,1,84,7.552,30,0.75,0,0,1,0.831,NA,NA,NA,NA,"feature",1,3.96,6.72
"1053","knock","otter",34,1,14,6.184,4,0.1,0,1,0,1.216,NA,NA,NA,NA,"skip",0,7.745,9.193
"1053","risk","zero",24,1,14,6.28,5,0.125,0,1,0,0.911,NA,NA,NA,NA,"zero",1,3.08,4.729
"1053","collect","loyalty",9,1,15,12.593,7,0.175,0,1,0,0.792,NA,NA,NA,NA,"skip",0,14.034,15.697
"1053","plant","worm",17,1,3,9.48,1,0.025,0,1,0,0.999,NA,NA,NA,NA,"worm",1,2.184,3.72
"1053","want","ascent",35,1,84,7.584,29,0.725,0,0,1,1.304,NA,NA,NA,NA,"skip",0,2.833,4.321
"1053","date","laugh",15,1,69,12.465,26,0.65,0,0,1,0.855,NA,NA,NA,NA,"laugh",1,2.808,4.504
"1053","link","crisis",7,1,90,8.872,36,0.9,1,1,1,18.393,NA,NA,NA,NA,"crisis",1,1.767,4.135
"1053","bias","sirloin",33,1,94,7.215,39,0.975,1,1,1,3.175,NA,NA,NA,NA,"skip",0,9.424,10.857
"1053","replace","roach",13,1,17,8.24,10,0.25,0,1,0,1.016,NA,NA,NA,NA,"skip",0,2.264,3.96
"1053","pea","bathtub",20,1,91,8.264,37,0.925,1,1,1,1.104,NA,NA,NA,NA,"bathroom",0,1.953,4.473
"1053","need","faucet",26,1,10,7.824,2,0.05,0,1,0,1.079,NA,NA,NA,NA,"skip",0,5.816,7.272
"1053","visit","glove",22,1,18,7.736,13,0.325,1,0,0,1.103,NA,NA,NA,NA,"skip",0,6.529,8
"1053","caring","skirt",14,1,18,7.688,11,0.275,0,1,0,0.96,NA,NA,NA,NA,"skip",0,5.921,7.305
"1053","bullet","walkway",30,1,87,4.313,33,0.825,1,1,1,0.959,NA,NA,NA,NA,"hallway",0,1.792,4.368
"1053","climax","saucer",32,1,16,8.633,9,0.225,0,0,1,0.889,NA,NA,NA,NA,"saucer",1,2.136,5.408
"1053","pork","emperor",38,1,92,8.833,38,0.95,1,1,1,1.464,NA,NA,NA,NA,"emperor",1,2.192,12.874
"1053","nerve","bumper",16,1,26,10.001,21,0.525,0,0,1,0.928,NA,NA,NA,NA,"bumper",1,2.944,5.857
"1053","find","clown",40,1,22,10.937,19,0.475,1,0,0,1.121,NA,NA,NA,NA,"skip",0,6.273,7.697
"1053","prison","loaf",11,1,97,3.776,40,1,1,1,1,1.064,NA,NA,NA,NA,"loaf",1,1.72,6.929
"1053","bleach","ruin",21,1,86,7.08,32,0.8,1,1,1,1.135,NA,NA,NA,NA,"ruin",1,2.12,3.76
"1053","mill","feast",18,1,15,12.745,6,0.15,0,1,0,1.68,NA,NA,NA,NA,"skip",0,16.698,18.162
"1053","port","cinema",4,1,20,7.032,16,0.4,0,0,1,0.824,NA,NA,NA,NA,"cinema",1,2.776,6.04
"1053","forest","knob",37,1,26,4.479,22,0.55,0,0,1,0.896,NA,NA,NA,NA,"ribbon",0,6.225,10.337
"1053","process","joker",5,1,19,19.521,14,0.35,1,0,0,1.232,NA,NA,NA,NA,"skip",0,2.945,4.984
"1053","grip","beach",23,1,23,5.991,20,0.5,1,0,0,0.999,NA,NA,NA,NA,"skip",0,2.808,5.601
"1053","fee","chowder",39,1,83,10.928,28,0.7,0,0,1,0.977,NA,NA,NA,NA,"loyality",0,1.872,5.736
"1055","process","joker",1,1,25,3.415,18,0.45,1,1,1,1.566,NA,NA,NA,NA,"no",0,8.837,10.485
"1055","collect","loyalty",29,1,34,4.763,25,0.625,0,1,0,2.328,NA,NA,NA,NA,"loyalty",1,8.032,17.176
"1055","need","faucet",34,1,16,3.503,6,0.15,0,0,1,1.135,NA,NA,NA,NA,"faucet",1,5.259,8.446
"1055","capital","figure",12,1,73,4.04,36,0.9,1,0,0,0.933,NA,NA,NA,NA,"figure",1,5.079,7.606
"1055","fee","chowder",8,1,16,2.743,8,0.2,0,0,1,1.31,NA,NA,NA,NA,"chowder",1,4.766,7.694
"1055","link","crisis",18,1,18,2.845,11,0.275,0,1,0,1.533,NA,NA,NA,NA,"crisis",1,4.175,7.469
"1055","climax","saucer",37,1,15,8.309,4,0.1,0,0,1,1.39,NA,NA,NA,NA,"saucer",1,5.022,8.231
"1055","replace","roach",39,1,27,4.733,21,0.525,1,1,1,1.022,NA,NA,NA,NA,"no",0,4.441,6.08
"1055","port","cinema",28,1,78,5.076,38,0.95,1,0,0,1.23,NA,NA,NA,NA,"cinema",1,4.343,6.822
"1055","date","laugh",14,1,67,9.719,34,0.85,1,0,0,1.797,NA,NA,NA,NA,"laugh",1,2.079,4.455
"1055","chicken","beet",30,1,41,5.526,30,0.75,1,1,1,1.741,NA,NA,NA,NA,"beet",1,2.133,4.047
"1055","fan","feature",24,1,34,3.077,26,0.65,0,1,0,7.214,NA,NA,NA,NA,"feature",1,4.582,7.454
"1055","banner","glide",20,1,11,17.67,1,0.025,0,0,1,3.811,NA,NA,NA,NA,"glide",1,3.419,5.59
"1055","shrink","mafia",10,1,31,2.876,23,0.575,1,1,1,7.255,NA,NA,NA,NA,"no",0,4.671,6.215
"1055","smother","surgery",19,1,16,8.245,7,0.175,0,0,1,1.045,NA,NA,NA,NA,"surgery",1,3.207,6.055
"1055","calf","annoy",9,1,49,45.151,31,0.775,1,0,0,1.206,NA,NA,NA,NA,"no",0,4.443,6.021
"1055","prison","loaf",2,1,71,7.157,35,0.875,1,0,0,1.117,NA,NA,NA,NA,"loaf",1,1.757,5.877
"1055","want","ascent",5,1,26,9.916,19,0.475,0,1,0,1.318,NA,NA,NA,NA,"ascent",1,3.183,6.12
"1055","grip","beach",38,1,32,12.78,24,0.6,0,1,0,1.301,NA,NA,NA,NA,"beach",1,4.901,7.214
"1055","remind","foam",22,1,20,3.116,14,0.35,1,1,1,1.624,NA,NA,NA,NA,"no",0,2.454,4.126
"1055","bullet","walkway",26,1,20,12.573,13,0.325,1,1,1,1.198,NA,NA,NA,NA,"no",0,4.966,7.119
"1055","mill","feast",36,1,37,4.278,29,0.725,1,0,0,2.749,NA,NA,NA,NA,"no",0,4.474,6.383
"1055","glue","force",15,1,15,4.11,3,0.075,0,0,1,7.631,NA,NA,NA,NA,"force",1,4.932,6.973
"1055","plant","worm",21,1,79,2.814,39,0.975,1,0,0,1.06,NA,NA,NA,NA,"tree",0,10.346,12.158
"1055","forest","knob",33,1,26,4.91,20,0.5,1,1,1,3.526,NA,NA,NA,NA,"knob",1,5.541,7.694
"1055","anger","decay",23,1,52,13.313,32,0.8,1,0,0,13.139,NA,NA,NA,NA,"decay",1,2.949,5.525
"1055","biology","temper",6,1,17,3.02,10,0.25,0,0,1,8.072,NA,NA,NA,NA,"temper",1,4.397,7.421
"1055","visit","glove",25,1,36,3.277,28,0.7,1,0,0,0.799,NA,NA,NA,NA,"place",0,7.646,12.607
"1055","find","clown",27,1,16,3.376,5,0.125,0,1,0,8.109,NA,NA,NA,NA,"clown",1,3.805,6.014
"1055","pea","bathtub",7,1,22,3.991,16,0.4,0,1,0,1.604,NA,NA,NA,NA,"bathtub",1,5.057,11.924
"1055","pork","emperor",11,1,74,3.252,37,0.925,1,0,0,0.872,NA,NA,NA,NA,"no",0,3.277,4.977
"1055","bacon","feud",31,1,17,4.671,9,0.225,0,0,1,2.128,NA,NA,NA,NA,"fued",0,3.56,5.797
"1055","risk","zero",17,1,36,3.508,27,0.675,0,1,0,1.07,NA,NA,NA,NA,"zero",1,2.494,7.166
"1055","nerve","bumper",3,1,22,4.171,15,0.375,0,1,0,5.869,NA,NA,NA,NA,"no",0,6.929,8.63
"1055","bleach","ruin",4,1,100,6.454,40,1,1,1,1,1.341,NA,NA,NA,NA,"ruin",1,2.182,4.358
"1055","knock","otter",40,1,18,3.293,12,0.3,0,0,1,1.526,NA,NA,NA,NA,"otter",1,2.478,4.382
"1055","bias","sirloin",35,1,30,10.637,22,0.55,0,1,0,0.997,NA,NA,NA,NA,"sirloin",1,3.566,6.974
"1055","copy","bedroom",32,1,22,3.797,17,0.425,1,1,1,1.23,NA,NA,NA,NA,"bedroom",1,3.748,7.333
"1055","caring","skirt",13,1,11,4.035,2,0.05,0,0,1,6.829,NA,NA,NA,NA,"skirt",1,3.657,6.336
"1055","rock","milk",16,1,58,3.087,33,0.825,1,1,1,4.216,NA,NA,NA,NA,"milk",1,2.122,7.19
"1262","mill","feast",18,1,58,3.285,19,0.475,0,1,0,0.977,NA,NA,NA,NA,"feast",1,12.239,19.109
"1262","calf","annoy",8,1,58,4.342,18,0.45,0,1,0,0.951,NA,NA,NA,NA,"annoy",1,11.243,17.494
"1262","bias","sirloin",4,1,70,7.989,30,0.75,0,0,1,41.024,NA,NA,NA,NA,"sirloin",1,10.131,17.047
"1262","prison","loaf",21,1,60,62.735,22,0.55,1,1,1,1.455,NA,NA,NA,NA,"SKIP",0,14.701,18.826
"1262","remind","foam",7,1,54,41.487,14,0.35,1,1,1,1.087,NA,NA,NA,NA,"foam",1,10.262,15.867
"1262","knock","otter",37,1,59,81.104,20,0.5,1,1,1,2.188,NA,NA,NA,NA,"beaver",0,12.465,32.27
"1262","copy","bedroom",29,1,58,13.359,17,0.425,1,0,0,0.816,NA,NA,NA,NA,"bedroom",1,9.066,12.327
"1262","chicken","beet",14,1,85,30.399,37,0.925,0,0,1,5.823,NA,NA,NA,NA,"SKIP",0,27.387,30.384
"1262","bleach","ruin",35,1,66,2.982,28,0.7,0,1,0,1.175,NA,NA,NA,NA,"ruin",1,18.349,22.11
"1262","need","faucet",26,1,32,23.847,6,0.15,1,1,1,1.095,NA,NA,NA,NA,"SKIP",0,15.005,20.376
"1262","nerve","bumper",2,1,35,3.752,9,0.225,1,0,0,1.038,NA,NA,NA,NA,"bumper",1,8.917,15.801
"1262","shrink","mafia",39,1,63,9.656,25,0.625,0,1,0,0.855,NA,NA,NA,NA,"mafia",1,13.538,20.111
"1262","port","cinema",9,1,8,52.815,2,0.05,1,1,1,1.334,NA,NA,NA,NA,"SKIP",0,17.578,20.55
"1262","smother","surgery",24,1,63,35.973,24,0.6,0,1,0,6.75,NA,NA,NA,NA,"surgery",1,10.084,14.297
"1262","bacon","feud",40,1,95,38.583,40,1,0,0,1,1.2,NA,NA,NA,NA,"feud",1,10.494,13.022
"1262","replace","roach",33,1,71,4.831,32,0.8,0,0,1,1.35,NA,NA,NA,NA,"ranch",0,12.236,17.602
"1262","glue","force",22,1,59,2.976,21,0.525,0,1,0,0.792,NA,NA,NA,NA,"force",1,14.122,19.676
"1262","visit","glove",31,1,80,11.519,34,0.85,0,0,1,1.207,NA,NA,NA,NA,"glove",1,10.804,17.992
"1262","caring","skirt",12,1,21,38.534,4,0.1,1,1,1,1.007,NA,NA,NA,NA,"bear",0,15.284,18.615
"1262","capital","figure",11,1,94,6.737,39,0.975,0,0,1,1.165,NA,NA,NA,NA,"figure",1,9.753,21.879
"1262","banner","glide",38,1,4,34.135,1,0.025,1,1,1,1.111,NA,NA,NA,NA,"year",0,11.397,14.006
"1262","biology","temper",36,1,33,19.879,8,0.2,1,0,0,0.782,NA,NA,NA,NA,"tamper",0,12.985,17.981
"1262","collect","loyalty",17,1,36,45.272,10,0.25,1,1,1,1.31,NA,NA,NA,NA,"loyalty",1,11.639,19.362
"1262","process","joker",5,1,41,17.932,11,0.275,1,0,0,1.022,NA,NA,NA,NA,"joke",0,16.054,20.161
"1262","anger","decay",32,1,41,3.208,12,0.3,1,0,0,0.798,NA,NA,NA,NA,"delay",0,14.793,18.751
"1262","date","laugh",15,1,81,20.151,35,0.875,0,0,1,6.263,NA,NA,NA,NA,"laugh",1,9.951,15.182
"1262","grip","beach",23,1,71,2.375,31,0.775,0,0,1,1.623,NA,NA,NA,NA,"SKIP",0,17.786,21.959
"1262","fan","feature",25,1,33,23.552,7,0.175,1,0,0,1.087,NA,NA,NA,NA,"feature",1,8.881,14.831
"1262","find","clown",6,1,53,12.097,13,0.325,1,0,0,1.26,NA,NA,NA,NA,"clown",1,10.632,16.047
"1262","risk","zero",16,1,26,26.152,5,0.125,1,0,0,0.895,NA,NA,NA,NA,"block",0,16.647,20.912
"1262","climax","saucer",27,1,60,11.022,23,0.575,0,1,0,3.54,NA,NA,NA,NA,"sauce",0,11.288,22.592
"1262","pea","bathtub",3,1,63,6.447,26,0.65,0,1,0,0.878,NA,NA,NA,NA,"bathtub",1,10.957,22.263
"1262","link","crisis",10,1,79,4.929,33,0.825,0,1,0,3.546,NA,NA,NA,NA,"crisis",1,9.126,14.921
"1262","forest","knob",28,1,85,35.635,38,0.95,0,0,1,1.051,NA,NA,NA,NA,"handle",0,12.061,16.43
"1262","fee","chowder",30,1,81,53.311,36,0.9,0,0,1,0.982,NA,NA,NA,NA,"chowder",1,10.626,16.06
"1262","pork","emperor",19,1,57,18.463,15,0.375,1,1,1,0.935,NA,NA,NA,NA,"emperor",1,2.671,7.435
"1262","bullet","walkway",13,1,68,21.711,29,0.725,1,1,1,1.133,NA,NA,NA,NA,"path",0,11.801,14.992
"1262","plant","worm",20,1,65,11.574,27,0.675,0,1,0,0.903,NA,NA,NA,NA,"worm",1,10.215,13.247
"1262","want","ascent",1,1,12,35.108,3,0.075,1,0,0,1.15,NA,NA,NA,NA,"beer",0,31.34,33.614
"1262","rock","milk",34,1,57,11.335,16,0.4,1,0,0,1.063,NA,NA,NA,NA,"milk",1,8.821,12.512
"1265","banner","glide",1,1,1,3.522,4,0.1,0,1,0,1.145,NA,NA,NA,NA,"skip",0,3.322,7.792
"1265","port","cinema",21,1,4,2.764,35,0.875,1,0,0,0.806,NA,NA,NA,NA,"skip",0,1.982,2.97
"1265","pork","emperor",9,1,1,3.739,2,0.05,0,0,1,2.114,NA,NA,NA,NA,"emperor",1,2.407,5.57
"1265","process","joker",15,1,1,2.334,34,0.85,1,1,1,0.698,NA,NA,NA,NA,"bank",0,5.543,7.695
"1265","grip","beach",3,1,1,2.149,18,0.45,1,0,0,0.735,NA,NA,NA,NA,"skip",0,2.417,3.38
"1265","fee","chowder",11,1,1,3.174,25,0.625,0,0,1,0.718,NA,NA,NA,NA,"skip",0,8.809,10.151
"1265","rock","milk",29,1,1,2.757,11,0.275,0,0,1,0.77,NA,NA,NA,NA,"skip",0,2.244,2.959
"1265","risk","zero",22,1,1,2.386,21,0.525,1,0,0,0.956,NA,NA,NA,NA,"skip",0,2.281,3.104
"1265","link","crisis",39,1,1,2.284,13,0.325,0,1,0,0.874,NA,NA,NA,NA,"crowd",0,2.444,5.287
"1265","prison","loaf",10,1,1,2.004,28,0.7,1,1,1,0.733,NA,NA,NA,NA,"skip",0,2.145,2.95
"1265","biology","temper",36,1,1,2.307,9,0.225,0,1,0,0.927,NA,NA,NA,NA,"skip",0,2.123,2.822
"1265","mill","feast",37,1,1,2.719,10,0.25,0,0,1,0.686,NA,NA,NA,NA,"skip",0,1.352,2.025
"1265","copy","bedroom",23,1,1,2.225,30,0.75,1,1,1,0.71,NA,NA,NA,NA,"skip",0,1.502,2.915
"1265","smother","surgery",25,1,1,2.808,29,0.725,1,1,1,1.481,NA,NA,NA,NA,"skip",0,2.487,3.491
"1265","shrink","mafia",4,1,73,5.382,37,0.925,1,0,0,1.414,NA,NA,NA,NA,"skip",0,2.391,3.075
"1265","find","clown",26,1,1,2.254,14,0.35,0,1,0,0.839,NA,NA,NA,NA,"skip",0,2.283,3.117
"1265","climax","saucer",17,1,1,3.096,15,0.375,1,0,0,1.074,NA,NA,NA,NA,"skip",0,2.856,3.632
"1265","plant","worm",27,1,1,2.646,7,0.175,0,1,0,0.933,NA,NA,NA,NA,"skip",0,2.364,3.018
"1265","replace","roach",12,1,1,2.424,23,0.575,0,0,1,1.718,NA,NA,NA,NA,"skip",0,2.259,2.914
"1265","capital","figure",24,1,1,3.409,3,0.075,0,1,0,0.913,NA,NA,NA,NA,"skip",0,2.976,3.629
"1265","remind","foam",8,1,19,4.504,36,0.9,1,1,1,9.993,NA,NA,NA,NA,"skip",0,2.478,3.333
"1265","collect","loyalty",30,1,1,2.204,16,0.4,1,0,0,0.913,NA,NA,NA,NA,"skip",0,2.868,3.63
"1265","need","faucet",16,1,1,2.263,31,0.775,1,1,1,0.661,NA,NA,NA,NA,"skip",0,1.473,2.36
"1265","want","ascent",6,1,1,2.669,5,0.125,0,1,0,1.03,NA,NA,NA,NA,"skip",0,1.07,1.815
"1265","bullet","walkway",7,1,1,2.556,8,0.2,0,1,0,0.927,NA,NA,NA,NA,"skip",0,0.992,2.196
"1265","glue","force",32,1,1,2.499,27,0.675,0,0,1,0.797,NA,NA,NA,NA,"skip",0,1.416,2.03
"1265","bacon","feud",14,1,100,5.655,40,1,1,1,1,0.804,NA,NA,NA,NA,"feud",1,9.904,11.903
"1265","caring","skirt",20,1,1,2.101,33,0.825,1,1,1,1.053,NA,NA,NA,NA,"skip",0,2.574,6.778
"1265","anger","decay",5,1,1,2.854,22,0.55,0,0,1,1.382,NA,NA,NA,NA,"skip",0,1.211,1.819
"1265","forest","knob",19,1,1,2.133,19,0.475,1,0,0,0.75,NA,NA,NA,NA,"knob",1,1.765,3.575
"1265","nerve","bumper",33,1,1,2.815,20,0.5,1,0,0,0.718,NA,NA,NA,NA,"skip",0,1.799,2.631
"1265","fan","feature",34,1,1,2.909,6,0.15,0,1,0,1.02,NA,NA,NA,NA,"skip",0,1.026,1.606
"1265","bleach","ruin",35,1,1,2.317,24,0.6,0,0,1,0.846,NA,NA,NA,NA,"skip",0,1.895,2.46
"1265","knock","otter",28,1,1,2.182,17,0.425,1,0,0,0.742,NA,NA,NA,NA,"skip",0,1.188,1.868
"1265","visit","glove",38,1,1,2.166,26,0.65,0,0,1,0.678,NA,NA,NA,NA,"skip",0,1.921,2.546
"1265","bias","sirloin",40,1,1,3.122,12,0.3,0,1,0,0.938,NA,NA,NA,NA,"skip",0,2.091,2.766
"1265","date","laugh",31,1,1,1.887,32,0.8,1,1,1,0.73,NA,NA,NA,NA,"skip",0,1.909,2.51
"1265","pea","bathtub",13,1,100,4.229,39,0.975,1,0,0,1.135,NA,NA,NA,NA,"bathroom",0,2.271,4.858
"1265","calf","annoy",2,1,1,4.852,1,0.025,0,0,1,3.915,NA,NA,NA,NA,"skip",0,2.135,2.806
"1265","chicken","beet",18,1,99,2.551,38,0.95,1,1,1,0.749,NA,NA,NA,NA,"beet",1,9.53,11.327
"1342","rock","milk",32,1,82,3.449,25,0.625,1,1,1,0.917,NA,NA,NA,NA,"milk",1,2.859,5.123
"1342","plant","worm",26,1,100,14.016,37,0.925,0,0,1,1.237,NA,NA,NA,NA,"worm",1,21.007,23.469
"1342","grip","beach",3,1,7,2.824,11,0.275,1,0,0,0.796,NA,NA,NA,NA,"glove",0,6.826,9.546
"1342","nerve","bumper",13,1,1,2.464,8,0.2,1,1,1,1.266,NA,NA,NA,NA,"bumps",0,10.265,14.391
"1342","glue","force",34,1,100,54.637,32,0.8,0,1,0,8.054,NA,NA,NA,NA,"force",1,11.717,13.798
"1342","bleach","ruin",5,1,41,6.991,20,0.5,0,1,0,1.459,NA,NA,NA,NA,"damage",0,9.451,13.573
"1342","mill","feast",24,1,77,97.411,24,0.6,1,1,1,0.931,NA,NA,NA,NA,"feast",1,28.529,30.899
"1342","collect","loyalty",10,1,24,2.692,15,0.375,0,1,0,0.908,NA,NA,NA,NA,"gold",0,2.224,4.707
"1342","calf","annoy",29,1,1,7.582,1,0.025,1,0,0,1.235,NA,NA,NA,NA,"utmost",0,2.002,4.196
"1342","date","laugh",1,1,100,3.153,39,0.975,0,0,1,1.365,NA,NA,NA,NA,"week",0,7.449,9.77
"1342","bias","sirloin",4,1,1,2.297,5,0.125,1,0,0,0.821,NA,NA,NA,NA,"meat",0,22.682,24.736
"1342","anger","decay",33,1,29,2.546,17,0.425,0,1,0,0.896,NA,NA,NA,NA,"mad",0,2.126,4.023
"1342","knock","otter",28,1,1,2.721,6,0.15,1,0,0,0.657,NA,NA,NA,NA,"door",0,1.016,3.628
"1342","shrink","mafia",12,1,90,12.03,28,0.7,1,1,1,0.767,NA,NA,NA,NA,"mafia",1,9.024,11.463
"1342","port","cinema",18,1,1,2.93,2,0.05,1,0,0,1.198,NA,NA,NA,NA,"climax",0,5.717,11.75
"1342","biology","temper",8,1,32,35.145,18,0.45,0,1,0,0.952,NA,NA,NA,NA,"books",0,20.336,22.478
"1342","bacon","feud",22,1,1,2.224,7,0.175,1,0,0,0.774,NA,NA,NA,NA,"eggs",0,19.142,21.488
"1342","smother","surgery",31,1,100,4.108,38,0.95,0,0,1,1.264,NA,NA,NA,NA,"surgery",1,18.844,21.696
"1342","prison","loaf",40,1,2,2.815,9,0.225,1,0,0,0.729,NA,NA,NA,NA,"bread",0,33.723,36.292
"1342","link","crisis",6,1,1,2.664,3,0.075,1,0,0,0.831,NA,NA,NA,NA,"crisis",1,5.985,8.471
"1342","fan","feature",14,1,100,2.266,40,1,0,0,1,0.785,NA,NA,NA,NA,"feature",1,1.261,5.559
"1342","want","ascent",16,1,100,66.529,33,0.825,0,0,1,1.377,NA,NA,NA,NA,"ascent",1,2.379,6.848
"1342","fee","chowder",9,1,73,10.701,23,0.575,1,1,1,1.069,NA,NA,NA,NA,"flounder",0,15.461,18.968
"1342","bullet","walkway",27,1,62,2.109,22,0.55,1,1,1,0.818,NA,NA,NA,NA,"stray",0,1.106,4.468
"1342","risk","zero",15,1,98,4.579,30,0.75,0,0,1,1.21,NA,NA,NA,NA,"zero",1,7.944,11.427
"1342","remind","foam",17,1,100,14.57,35,0.875,0,0,1,2.549,NA,NA,NA,NA,"foam",1,17.712,20.476
"1342","process","joker",2,1,35,44.049,19,0.475,1,1,1,16.238,NA,NA,NA,NA,"list",0,2.501,4.659
"1342","copy","bedroom",36,1,5,2.741,10,0.25,1,0,0,0.695,NA,NA,NA,NA,"paper",0,3.937,6.033
"1342","forest","knob",20,1,100,3.878,36,0.9,0,0,1,0.998,NA,NA,NA,NA,"knob",1,23.923,25.97
"1342","pea","bathtub",19,1,10,14.034,13,0.325,0,1,0,7.106,NA,NA,NA,NA,"bedroom",0,12.925,18.316
"1342","chicken","beet",21,1,86,2.474,27,0.675,1,1,1,0.866,NA,NA,NA,NA,"beef",0,15.129,17.749
"1342","need","faucet",38,1,14,2.85,14,0.35,0,1,0,0.738,NA,NA,NA,NA,"n/a",0,23.717,25.989
"1342","find","clown",30,1,26,4.507,16,0.4,0,1,0,4.85,NA,NA,NA,NA,"clown",1,5.577,9.113
"1342","replace","roach",23,1,100,4.707,34,0.85,0,0,1,1.124,NA,NA,NA,NA,"roach",1,6.427,9.058
"1342","capital","figure",11,1,90,2.94,29,0.725,0,0,1,0.85,NA,NA,NA,NA,"figure",1,21.617,27.306
"1342","caring","skirt",25,1,1,2.704,4,0.1,1,0,0,0.809,NA,NA,NA,NA,"skirt",1,2.835,5.808
"1342","pork","emperor",35,1,86,8.033,26,0.65,1,1,1,0.787,NA,NA,NA,NA,"emporer",0,6.074,8.981
"1342","visit","glove",7,1,59,43.988,21,0.525,1,1,1,1.211,NA,NA,NA,NA,"guest",0,11.145,13.63
"1342","banner","glide",39,1,9,45.314,12,0.3,0,1,0,1.002,NA,NA,NA,NA,"sign",0,11.314,17.354
"1342","climax","saucer",37,1,99,26.856,31,0.775,0,1,0,3.283,NA,NA,NA,NA,"plate",0,13.274,15.972
"1368","pork","emperor",22,1,15,8.443,26,0.65,1,1,1,8.313,NA,NA,NA,NA,"emperor",1,2.347,4.739
"1368","climax","saucer",5,1,8,2.665,14,0.35,0,1,0,1.344,NA,NA,NA,NA,"skip",0,5.191,8.083
"1368","pea","bathtub",11,1,70,2.518,38,0.95,0,0,1,1.193,NA,NA,NA,NA,"bathtub",1,1.351,2.579
"1368","smother","surgery",35,1,28,2.831,33,0.825,0,0,1,2.078,NA,NA,NA,NA,"surgeon",0,1.571,3.143
"1368","visit","glove",1,1,5,2.879,5,0.125,1,0,0,1.117,NA,NA,NA,NA,"skip",0,3.836,4.533
"1368","find","clown",14,1,19,3.168,31,0.775,0,1,0,0.79,NA,NA,NA,NA,"skip",0,8.417,11.788
"1368","capital","figure",33,1,15,2.112,27,0.675,1,1,1,0.867,NA,NA,NA,NA,"skip",0,3,3.755
"1368","link","crisis",38,1,4,3.02,3,0.075,1,0,0,0.867,NA,NA,NA,NA,"skip",0,1.527,2.273
"1368","glue","force",13,1,6,3.13,7,0.175,1,0,0,0.662,NA,NA,NA,NA,"skip",0,11.223,11.935
"1368","port","cinema",20,1,14,3.677,24,0.6,1,1,1,0.996,NA,NA,NA,NA,"cinema",1,1.315,2.783
"1368","replace","roach",25,1,6,2.437,9,0.225,1,0,0,1.975,NA,NA,NA,NA,"skip",0,3.159,3.849
"1368","bullet","walkway",40,1,5,5.384,6,0.15,1,1,1,2.145,NA,NA,NA,NA,"walkway",1,1.033,5.93
"1368","mill","feast",31,1,10,2.188,17,0.425,0,1,0,0.609,NA,NA,NA,NA,"skip",0,8.114,8.958
"1368","want","ascent",26,1,6,3.247,10,0.25,1,0,0,2.24,NA,NA,NA,NA,"skip",0,2.316,3.02
"1368","shrink","mafia",30,1,50,3.575,37,0.925,0,0,1,0.629,NA,NA,NA,NA,"skip",0,1.608,2.611
"1368","need","faucet",39,1,9,2.478,16,0.4,1,1,1,2.86,NA,NA,NA,NA,"skip",0,1.21,2.078
"1368","prison","loaf",9,1,44,3.449,34,0.85,0,0,1,1.012,NA,NA,NA,NA,"loaf",1,1.76,2.816
"1368","knock","otter",19,1,80,3.817,40,1,0,0,1,1.213,NA,NA,NA,NA,"otter",1,2.595,3.494
"1368","rock","milk",12,1,7,3.951,11,0.275,1,0,0,2.03,NA,NA,NA,NA,"milk",1,2.335,3.368
"1368","risk","zero",7,1,50,5.268,36,0.9,0,0,1,1.059,NA,NA,NA,NA,"zero",1,3.828,5.089
"1368","forest","knob",16,1,8,3.806,12,0.3,0,1,0,0.783,NA,NA,NA,NA,"skip",0,5.817,6.627
"1368","anger","decay",3,1,13,4.023,21,0.525,1,1,1,0.69,NA,NA,NA,NA,"skip",0,4.469,5.363
"1368","caring","skirt",24,1,10,4.038,19,0.475,1,1,1,1.251,NA,NA,NA,NA,"skip",0,1.924,2.649
"1368","plant","worm",36,1,19,5.895,30,0.75,0,0,1,0.725,NA,NA,NA,NA,"worm",1,4.936,5.98
"1368","process","joker",2,1,8,2.781,13,0.325,1,1,1,0.67,NA,NA,NA,NA,"skip",0,3.835,4.418
"1368","chicken","beet",15,1,14,3.513,23,0.575,1,1,1,1,NA,NA,NA,NA,"beet",1,1.282,2.048
"1368","bleach","ruin",27,1,79,4.198,39,0.975,0,0,1,1.52,NA,NA,NA,NA,"ruin",1,1,3.983
"1368","fee","chowder",34,1,6,2.123,8,0.2,1,0,0,1.394,NA,NA,NA,NA,"skip",0,2.399,3.887
"1368","grip","beach",8,1,10,3.986,18,0.45,0,1,0,1.193,NA,NA,NA,NA,"skip",0,4.677,5.353
"1368","biology","temper",29,1,49,3.458,35,0.875,0,0,1,0.656,NA,NA,NA,NA,"temper",1,5.225,6.321
"1368","bacon","feud",23,1,8,4.883,15,0.375,1,1,1,0.853,NA,NA,NA,NA,"skip",0,5.685,6.335
"1368","fan","feature",21,1,14,6.111,22,0.55,0,1,0,5.448,NA,NA,NA,NA,"feature",1,1.44,2.485
"1368","calf","annoy",18,1,26,8.035,32,0.8,0,0,1,0.97,NA,NA,NA,NA,"annoy",1,1.715,2.572
"1368","remind","foam",28,1,18,2.974,29,0.725,0,1,0,0.723,NA,NA,NA,NA,"skip",0,2.723,3.804
"1368","date","laugh",32,1,4,4.409,4,0.1,1,0,0,1.751,NA,NA,NA,NA,"skip",0,1.544,2.267
"1368","banner","glide",17,1,11,3.455,20,0.5,0,1,0,0.769,NA,NA,NA,NA,"skip",0,4.592,5.255
"1368","collect","loyalty",4,1,3,2.64,2,0.05,1,0,0,2.497,NA,NA,NA,NA,"skip",0,2.849,3.486
"1368","nerve","bumper",6,1,16,4.401,28,0.7,0,1,0,1.134,NA,NA,NA,NA,"skip",0,5.675,6.481
"1368","copy","bedroom",37,1,3,4.595,1,0.025,1,0,0,0.936,NA,NA,NA,NA,"skip",0,2.806,3.692
"1368","bias","sirloin",10,1,14,5.404,25,0.625,0,1,0,0.808,NA,NA,NA,NA,"skip",0,1.612,2.74
"1467","anger","decay",5,1,2,4.184,4,0.1,0,1,0,0.736,NA,NA,NA,NA,"decay",1,22.216,24.462
"1467","bullet","walkway",34,1,6,2.135,10,0.25,0,0,1,1.207,NA,NA,NA,NA,"walkaway",0,16.033,19.359
"1467","find","clown",35,1,17,2.687,27,0.675,0,0,1,1.008,NA,NA,NA,NA,"clown",1,3.177,5.592
"1467","plant","worm",29,1,6,3.743,11,0.275,0,0,1,2.184,NA,NA,NA,NA,"worn",0,16.546,18.904
"1467","shrink","mafia",30,1,13,2.407,21,0.525,0,0,1,0.703,NA,NA,NA,NA,"mafia",1,8.979,11.176
"1467","biology","temper",39,1,1,15.926,1,0.025,0,1,0,11.007,NA,NA,NA,NA,"temper",1,11.276,13.64
"1467","need","faucet",19,1,3,1.855,5,0.125,0,1,0,0.928,NA,NA,NA,NA,"faucet",1,4.24,6.824
"1467","prison","loaf",27,1,15,2.127,25,0.625,1,0,0,0.735,NA,NA,NA,NA,"loaf",1,8.733,11.096
"1467","caring","skirt",12,1,5,1.743,8,0.2,0,1,0,0.791,NA,NA,NA,NA,"skirt",1,11.865,14.104
"1467","smother","surgery",24,1,10,6.263,16,0.4,0,1,0,0.88,NA,NA,NA,NA,"skip",0,6.449,8.608
"1467","chicken","beet",20,1,100,3.456,40,1,1,1,1,0.936,NA,NA,NA,NA,"beet",1,2.304,4.311
"1467","nerve","bumper",15,1,15,2.176,24,0.6,1,0,0,0.592,NA,NA,NA,NA,"feet",0,2.529,12.583
"1467","calf","annoy",11,1,12,12.352,19,0.475,1,0,0,0.607,NA,NA,NA,NA,"any",0,4.656,6.615
"1467","date","laugh",40,1,8,4.519,14,0.35,0,1,0,1.08,NA,NA,NA,NA,"laugh",1,4.226,6.391
"1467","bacon","feud",26,1,79,16.688,37,0.925,1,1,1,1.175,NA,NA,NA,NA,"feud",1,31.206,33.399
"1467","fan","feature",1,1,21,2.063,30,0.75,1,1,1,0.759,NA,NA,NA,NA,"feature",1,3.608,9.176
"1467","capital","figure",9,1,77,8.424,35,0.875,1,1,1,1.128,NA,NA,NA,NA,"figure",1,2.448,5.336
"1467","link","crisis",37,1,93,3.959,39,0.975,1,1,1,0.944,NA,NA,NA,NA,"crisis",1,11.806,14.376
"1467","mill","feast",18,1,11,2.56,18,0.45,1,0,0,0.743,NA,NA,NA,NA,"skip",0,4.273,6.392
"1467","copy","bedroom",22,1,38,6.104,34,0.85,1,0,0,1.304,NA,NA,NA,NA,"skip",0,18.561,20.503
"1467","remind","foam",4,1,9,7.767,15,0.375,0,0,1,0.847,NA,NA,NA,NA,"skip",0,23.177,25.399
"1467","glue","force",10,1,15,1.991,26,0.65,1,0,0,0.864,NA,NA,NA,NA,"fued",0,26.545,28.463
"1467","collect","loyalty",3,1,25,1.393,31,0.775,1,1,1,0.887,NA,NA,NA,NA,"skip",0,8.064,10.359
"1467","want","ascent",13,1,1,1.647,3,0.075,0,0,1,0.808,NA,NA,NA,NA,"ascent",1,2.305,4.591
"1467","grip","beach",23,1,12,2.368,20,0.5,1,0,0,0.56,NA,NA,NA,NA,"skip",0,6.666,9.967
"1467","bias","sirloin",2,1,4,4.759,7,0.175,0,1,0,1.336,NA,NA,NA,NA,"sirloin",1,14.714,17.919
"1467","forest","knob",33,1,14,11.679,22,0.55,1,0,0,0.975,NA,NA,NA,NA,"skip",0,8.946,10.719
"1467","port","cinema",8,1,18,11.599,28,0.7,1,0,0,1.392,NA,NA,NA,NA,"skip",0,17.475,20.376
"1467","knock","otter",14,1,30,3.608,33,0.825,1,1,1,0.872,NA,NA,NA,NA,"skip",0,23.385,25.417
"1467","pork","emperor",31,1,90,5.328,38,0.95,1,1,1,4.248,NA,NA,NA,NA,"emporer",0,4.319,6.815
"1467","fee","chowder",38,1,1,3.975,2,0.05,0,1,0,1.279,NA,NA,NA,NA,"chowder",1,5.041,7.503
"1467","pea","bathtub",25,1,78,21.287,36,0.9,1,1,1,1.607,NA,NA,NA,NA,"bathtub",1,3.937,6.775
"1467","visit","glove",7,1,8,2.568,12,0.3,0,1,0,0.976,NA,NA,NA,NA,"glove",1,15.62,17.936
"1467","risk","zero",32,1,15,4.016,23,0.575,1,0,0,1.136,NA,NA,NA,NA,"skip",0,24.004,26.145
"1467","climax","saucer",6,1,10,4.415,17,0.425,0,0,1,1.664,NA,NA,NA,NA,"sacue",0,3.609,5.64
"1467","process","joker",36,1,6,5.983,9,0.225,0,0,1,1.159,NA,NA,NA,NA,"skip",0,9.677,11.991
"1467","replace","roach",16,1,3,4.168,6,0.15,0,0,1,1.145,NA,NA,NA,NA,"roach",1,5.744,9.248
"1467","rock","milk",17,1,28,1.368,32,0.8,1,1,1,0.856,NA,NA,NA,NA,"skip",0,23.148,25.248
"1467","banner","glide",28,1,8,2.903,13,0.325,0,1,0,0.832,NA,NA,NA,NA,"glide",1,7.576,15.847
"1467","bleach","ruin",21,1,20,25.087,29,0.725,0,0,1,1.247,NA,NA,NA,NA,"ruin",1,18.786,21.383
"1554","date","laugh",29,1,1,1.459,6,0.15,1,1,1,0.655,NA,NA,NA,NA,"job",0,2.047,2.559
"1554","nerve","bumper",24,1,28,1.172,39,0.975,0,1,0,0.717,NA,NA,NA,NA,"bore",0,1.903,2.623
"1554","banner","glide",27,1,1,1.593,5,0.125,1,0,0,0.546,NA,NA,NA,NA,"list",0,1.104,1.952
"1554","collect","loyalty",16,1,16,3.778,32,0.8,0,1,0,1.875,NA,NA,NA,NA,"random",0,0.896,5.536
"1554","need","faucet",34,1,1,1.007,16,0.4,0,0,1,0.685,NA,NA,NA,NA,"faucet",1,1.088,2.304
"1554","bacon","feud",23,1,1,1.615,12,0.3,1,1,1,0.719,NA,NA,NA,NA,"ball",0,1.199,1.824
"1554","caring","skirt",18,1,1,1.264,1,0.025,1,0,0,0.719,NA,NA,NA,NA,"bird",0,4.176,4.863
"1554","link","crisis",22,1,1,1.967,13,0.325,1,1,1,0.649,NA,NA,NA,NA,"road",0,2.016,2.623
"1554","bullet","walkway",20,1,19,1.092,34,0.85,0,1,0,0.467,NA,NA,NA,NA,"pound",0,2.208,3.632
"1554","climax","saucer",13,1,14,1.491,30,0.75,0,0,1,0.656,NA,NA,NA,NA,"pea",0,0.624,1.232
"1554","chicken","beet",19,1,1,1.203,18,0.45,0,0,1,0.693,NA,NA,NA,NA,"wrist",0,1.344,2.287
"1554","rock","milk",32,1,1,1.147,22,0.55,0,0,1,0.523,NA,NA,NA,NA,"kill",0,1.2,2.383
"1554","anger","decay",36,1,2,1.061,23,0.575,1,0,0,0.736,NA,NA,NA,NA,"thirst",0,0.592,1.551
"1554","knock","otter",39,1,18,1.008,33,0.825,0,1,0,0.498,NA,NA,NA,NA,"join",0,1.312,2.017
"1554","smother","surgery",31,1,1,1.289,4,0.1,1,0,0,0.529,NA,NA,NA,NA,"joy",0,1.182,1.886
"1554","bleach","ruin",1,1,5,1.148,26,0.65,1,0,0,0.507,NA,NA,NA,NA,"reading",0,0.943,2.832
"1554","biology","temper",3,1,28,3.386,38,0.95,0,1,0,3.007,NA,NA,NA,NA,"tiolet",0,1.632,4.384
"1554","want","ascent",11,1,1,1.163,21,0.525,0,0,1,0.757,NA,NA,NA,NA,"need",0,2.912,3.68
"1554","calf","annoy",35,1,13,0.953,28,0.7,1,0,0,0.514,NA,NA,NA,NA,"milk",0,1.247,2.496
"1554","grip","beach",9,1,1,1.078,11,0.275,1,1,1,0.663,NA,NA,NA,NA,"just",0,2.638,3.518
"1554","bias","sirloin",25,1,1,1.21,2,0.05,1,0,0,0.648,NA,NA,NA,NA,"ring",0,1.2,2.288
"1554","find","clown",2,1,1,1.139,15,0.375,1,1,1,0.601,NA,NA,NA,NA,"bell",0,0.559,1.615
"1554","fan","feature",21,1,1,1.228,3,0.075,1,0,0,0.537,NA,NA,NA,NA,"mood",0,0.831,1.647
"1554","port","cinema",8,1,24,1.881,37,0.925,0,1,0,0.571,NA,NA,NA,NA,"find",0,3.664,4.481
"1554","prison","loaf",15,1,3,1.342,24,0.6,0,0,1,0.626,NA,NA,NA,NA,"lime",0,1.822,2.462
"1554","remind","foam",30,1,1,1.329,19,0.475,0,0,1,0.616,NA,NA,NA,NA,"lemon",0,0.913,1.776
"1554","shrink","mafia",14,1,1,1.283,10,0.25,1,1,1,0.763,NA,NA,NA,NA,"bottle",0,0.815,2.639
"1554","mill","feast",10,1,1,1.11,7,0.175,1,1,1,0.835,NA,NA,NA,NA,"phone",0,0.512,1.344
"1554","pork","emperor",12,1,4,1.193,25,0.625,1,0,0,0.523,NA,NA,NA,NA,"desk",0,3.39,4.799
"1554","pea","bathtub",17,1,22,2.086,35,0.875,0,1,0,0.601,NA,NA,NA,NA,"chair",0,0.351,1.184
"1554","visit","glove",38,1,34,3.077,40,1,0,1,0,0.664,NA,NA,NA,NA,"monitor",0,1.968,3.391
"1554","risk","zero",26,1,13,1.789,29,0.725,1,0,0,0.664,NA,NA,NA,NA,"key",0,2.415,3.487
"1554","copy","bedroom",33,1,1,2.038,8,0.2,1,1,1,0.83,NA,NA,NA,NA,"lock",0,1.887,2.623
"1554","plant","worm",40,1,1,1.249,14,0.35,1,1,1,0.655,NA,NA,NA,NA,"hard",0,1.968,2.815
"1554","forest","knob",6,1,1,1.039,17,0.425,0,0,1,0.561,NA,NA,NA,NA,"drive",0,0.432,1.456
"1554","glue","force",37,1,1,2.139,20,0.5,0,0,1,1.367,NA,NA,NA,NA,"paper",0,1.375,2.56
"1554","replace","roach",4,1,15,1.547,31,0.775,0,1,0,0.507,NA,NA,NA,NA,"glue",0,0.831,1.758
"1554","fee","chowder",7,1,23,1.086,36,0.9,0,1,0,0.446,NA,NA,NA,NA,"ink",0,0.337,0.896
"1554","process","joker",28,1,1,1.717,9,0.225,1,1,1,2.615,NA,NA,NA,NA,"black",0,2.239,3.662
"1554","capital","figure",5,1,13,5.563,27,0.675,0,0,1,6.876,NA,NA,NA,NA,"red",0,0.544,1.647
"1618","find","clown",16,1,64,3.915,40,1,0,1,0,0.881,NA,NA,NA,NA,"SKIP",0,3.043,3.703
"1618","collect","loyalty",7,1,58,2.972,39,0.975,0,0,1,1.467,NA,NA,NA,NA,"SKIP",0,2.57,3.466
"1618","shrink","mafia",31,1,44,3.973,17,0.425,0,1,0,1.537,NA,NA,NA,NA,"SKIP",0,2.172,2.967
"1618","replace","roach",21,1,45,2.393,19,0.475,1,1,1,1.001,NA,NA,NA,NA,"SKIP",0,2.302,3.181
"1618","port","cinema",12,1,42,2.057,15,0.375,0,1,0,0.827,NA,NA,NA,NA,"SKIP",0,2.443,3.361
"1618","fee","chowder",40,1,40,2.035,11,0.275,1,0,0,10.013,NA,NA,NA,NA,"SKIP",0,2.784,3.627
"1618","pork","emperor",24,1,45,2.595,20,0.5,1,1,1,1.249,NA,NA,NA,NA,"SKIP",0,34.53,35.262
"1618","caring","skirt",39,1,47,2.516,26,0.65,0,1,0,0.768,NA,NA,NA,NA,"SKIP",0,2.284,3.015
"1618","nerve","bumper",29,1,40,1.819,10,0.25,1,0,0,3.413,NA,NA,NA,NA,"SKIP",0,2.334,3.07
"1618","knock","otter",20,1,41,5.723,12,0.3,1,1,1,0.957,NA,NA,NA,NA,"SKIP",0,29.773,30.436
"1618","rock","milk",1,1,44,12.548,18,0.45,0,1,0,0.967,NA,NA,NA,NA,"SKIP",0,24.484,25.175
"1618","chicken","beet",9,1,50,5.682,36,0.9,0,1,0,0.966,NA,NA,NA,NA,"SKIP",0,2.081,2.633
"1618","bias","sirloin",27,1,50,7.214,29,0.725,0,0,1,7.097,NA,NA,NA,NA,"sirloin",1,10.821,14.413
"1618","banner","glide",15,1,50,2.183,31,0.775,0,0,1,1.027,NA,NA,NA,NA,"glide",1,20.6,24.055
"1618","anger","decay",10,1,42,1.949,14,0.35,0,1,0,1.043,NA,NA,NA,NA,"decay",1,23.725,28.647
"1618","fan","feature",28,1,42,2.017,13,0.325,0,1,0,1.121,NA,NA,NA,NA,"SKIP",0,2.493,3.276
"1618","capital","figure",13,1,38,2.276,7,0.175,1,0,0,1.096,NA,NA,NA,NA,"figure",1,20.637,23.667
"1618","link","crisis",3,1,50,5.979,35,0.875,0,0,1,1.988,NA,NA,NA,NA,"SKIP",0,2.154,2.817
"1618","mill","feast",8,1,49,4.609,27,0.675,1,1,1,1.717,NA,NA,NA,NA,"feast",1,11.02,13.517
"1618","process","joker",26,1,38,2.19,6,0.15,1,0,0,0.925,NA,NA,NA,NA,"SKIP",0,2.534,25.39
"1618","date","laugh",23,1,54,2.346,38,0.95,0,0,1,0.977,NA,NA,NA,NA,"SKIP",0,2.107,2.851
"1618","visit","glove",35,1,39,2.067,9,0.225,1,0,0,0.82,NA,NA,NA,NA,"SKIP",0,1.829,2.714
"1618","bacon","feud",2,1,45,1.616,21,0.525,0,1,0,0.793,NA,NA,NA,NA,"SKIP",0,17.401,18.283
"1618","climax","saucer",30,1,49,5.868,28,0.7,1,1,1,1.653,NA,NA,NA,NA,"SKIP",0,1.883,2.645
"1618","smother","surgery",34,1,50,7.463,30,0.75,0,0,1,1.233,NA,NA,NA,NA,"SKIP",0,1.935,2.889
"1618","calf","annoy",6,1,46,2.571,23,0.575,1,1,1,1.189,NA,NA,NA,NA,"annoy",1,17.537,21.582
"1618","forest","knob",17,1,35,1.673,3,0.075,1,0,0,0.831,NA,NA,NA,NA,"knob",1,17.478,19.916
"1618","bullet","walkway",18,1,50,6.083,33,0.825,0,0,1,0.905,NA,NA,NA,NA,"SKIP",0,3.067,3.699
"1618","prison","loaf",38,1,50,3.005,32,0.8,0,0,1,0.988,NA,NA,NA,NA,"SKIP",0,2,2.769
"1618","plant","worm",37,1,36,1.453,4,0.1,1,0,0,0.817,NA,NA,NA,NA,"SKIP",0,2.164,2.825
"1618","need","faucet",22,1,47,1.99,25,0.625,1,1,1,0.813,NA,NA,NA,NA,"SKIP",0,2.686,3.262
"1618","want","ascent",11,1,46,2.62,24,0.6,0,1,0,1.118,NA,NA,NA,NA,"SKIP",0,1.984,2.761
"1618","biology","temper",33,1,44,2.011,16,0.4,1,1,1,1.399,NA,NA,NA,NA,"temper",1,9.825,13.433
"1618","risk","zero",5,1,32,1.661,1,0.025,1,0,0,1.056,NA,NA,NA,NA,"SKIP",0,2.498,3.261
"1618","grip","beach",4,1,37,2.073,5,0.125,1,0,0,6.226,NA,NA,NA,NA,"SKIP",0,2.533,3.418
"1618","glue","force",36,1,51,2.482,37,0.925,0,0,1,1.206,NA,NA,NA,NA,"SKIP",0,2.442,3.289
"1618","copy","bedroom",25,1,34,12.208,2,0.05,1,1,1,79.026,NA,NA,NA,NA,"bedroom",1,9.76,12.829
"1618","remind","foam",14,1,50,4.006,34,0.85,0,0,1,1.304,NA,NA,NA,NA,"SKIP",0,2.253,2.979
"1618","pea","bathtub",32,1,46,2.609,22,0.55,1,1,1,1.095,NA,NA,NA,NA,"SKIP",0,2.087,3.225
"1618","bleach","ruin",19,1,38,1.357,8,0.2,1,0,0,0.777,NA,NA,NA,NA,"ruin",1,12.777,14.935
"1732","pork","emperor",18,1,35,2.543,13,0.325,1,0,0,2.463,NA,NA,NA,NA,"mill",0,7.188,12.319
"1732","banner","glide",34,1,48,2.238,34,0.85,0,1,0,0.959,NA,NA,NA,NA,"kite",0,3.382,5.998
"1732","port","cinema",13,1,38,2.839,17,0.425,1,1,1,1.087,NA,NA,NA,NA,"wine",0,4.97,7.071
"1732","bacon","feud",20,1,37,2.791,16,0.4,1,1,1,1.167,NA,NA,NA,NA,"field",0,9.117,11.631
"1732","caring","skirt",26,1,50,4.175,35,0.875,0,1,0,0.959,NA,NA,NA,NA,"loss",0,4.957,6.751
"1732","knock","otter",36,1,34,3.004,9,0.225,1,1,1,1.367,NA,NA,NA,NA,"door",0,6.99,9.583
"1732","shrink","mafia",9,1,34,2.229,10,0.25,1,1,1,1.015,NA,NA,NA,NA,"wrap",0,5.381,8.15
"1732","remind","foam",35,1,35,2.238,12,0.3,1,1,1,1.087,NA,NA,NA,NA,"constant",0,4.427,8.368
"1732","fan","feature",17,1,40,3.071,22,0.55,1,1,1,1.319,NA,NA,NA,NA,"shield",0,3.146,6.174
"1732","capital","figure",25,1,30,2.893,7,0.175,1,0,0,1.119,NA,NA,NA,NA,"city",0,13.755,15.887
"1732","biology","temper",19,1,27,2.637,5,0.125,1,0,0,0.967,NA,NA,NA,NA,"anger",0,5.784,8.439
"1732","copy","bedroom",10,1,46,3.173,30,0.75,0,0,1,1.223,NA,NA,NA,NA,"sheet",0,7.838,10.095
"1732","prison","loaf",16,1,100,3.51,40,1,0,0,1,1.335,NA,NA,NA,NA,"loaf",1,5.43,7.583
"1732","smother","surgery",38,1,38,2.327,19,0.475,0,1,0,1.183,NA,NA,NA,NA,"carry",0,3.869,6.863
"1732","bullet","walkway",30,1,52,4.636,36,0.9,0,1,0,12.511,NA,NA,NA,NA,"cover",0,2.591,23.687
"1732","pea","bathtub",22,1,21,3.599,3,0.075,1,0,0,1.391,NA,NA,NA,NA,"knife",0,4.887,7.28
"1732","bias","sirloin",2,1,22,4.228,4,0.1,1,0,0,1.048,NA,NA,NA,NA,"ransom",0,2.028,7.078
"1732","need","faucet",14,1,38,2.735,18,0.45,1,1,1,1.879,NA,NA,NA,NA,"ant",0,4.337,6.871
"1732","grip","beach",29,1,39,3.471,21,0.525,1,1,1,1.215,NA,NA,NA,NA,"knock",0,18.441,21.183
"1732","link","crisis",6,1,33,2.391,8,0.2,1,1,1,0.975,NA,NA,NA,NA,"mail",0,12.856,16.295
"1732","bleach","ruin",39,1,30,2.471,6,0.15,1,0,0,0.935,NA,NA,NA,NA,"come",0,2.152,4.079
"1732","forest","knob",11,1,46,3.287,31,0.775,0,0,1,1.081,NA,NA,NA,NA,"anger",0,7.787,10.039
"1732","collect","loyalty",23,1,40,2.783,23,0.575,1,1,1,2.029,NA,NA,NA,NA,"bill",0,6.023,8.167
"1732","glue","force",27,1,47,4.015,33,0.825,0,1,0,1.014,NA,NA,NA,NA,"mill",0,3.898,6.022
"1732","nerve","bumper",15,1,44,2.679,29,0.725,0,0,1,1.367,NA,NA,NA,NA,"some",0,9.138,13.56
"1732","want","ascent",28,1,47,3.503,32,0.8,0,0,1,1.335,NA,NA,NA,NA,"need",0,1.962,4.951
"1732","process","joker",31,1,42,2.423,26,0.65,0,0,1,0.976,NA,NA,NA,NA,"knife",0,5.504,7.815
"1732","plant","worm",33,1,36,2.575,14,0.35,1,0,0,1.055,NA,NA,NA,NA,"mill",0,5.798,8.175
"1732","date","laugh",40,1,38,2.151,20,0.5,0,1,0,0.871,NA,NA,NA,NA,"flour",0,1.56,5.615
"1732","risk","zero",5,1,54,2.319,37,0.925,0,1,0,0.983,NA,NA,NA,NA,"dodge",0,10.604,17.711
"1732","fee","chowder",3,1,42,2.767,25,0.625,0,0,1,1.216,NA,NA,NA,NA,"knife",0,5.819,7.919
"1732","rock","milk",7,1,42,2.127,27,0.675,0,1,0,1.199,NA,NA,NA,NA,"prison",0,4.335,11.91
"1732","anger","decay",4,1,65,3.151,38,0.95,0,0,1,1.055,NA,NA,NA,NA,"fee",0,3.922,5.343
"1732","find","clown",24,1,34,2.327,11,0.275,1,0,0,1.022,NA,NA,NA,NA,"need",0,5.72,7.687
"1732","visit","glove",37,1,36,2.671,15,0.375,0,1,0,1.303,NA,NA,NA,NA,"prison",0,3.182,6.847
"1732","calf","annoy",21,1,18,3.479,2,0.05,1,0,0,0.967,NA,NA,NA,NA,"mill",0,2.058,4.983
"1732","replace","roach",1,1,40,2.535,24,0.6,0,1,0,1.207,NA,NA,NA,NA,"want",0,4.378,6.991
"1732","mill","feast",8,1,10,4.316,1,0.025,1,0,0,1.223,NA,NA,NA,NA,"fee",0,4.454,5.72
"1732","chicken","beet",12,1,71,3.295,39,0.975,0,0,1,1.215,NA,NA,NA,NA,"mill",0,3.565,6.182
"1732","climax","saucer",32,1,44,2.943,28,0.7,0,0,1,1.103,NA,NA,NA,NA,"rock",0,7.487,9.863
"1762","risk","zero",3,1,1,2.913,4,0.1,1,0,0,1.157,NA,NA,NA,NA,"reward",0,6.531,8.649
"1762","anger","decay",19,1,100,2.765,39,0.975,0,0,1,0.679,NA,NA,NA,NA,"stool",0,2.586,3.37
"1762","shrink","mafia",24,1,1,2.199,15,0.375,0,1,0,2.177,NA,NA,NA,NA,"wrap",0,1.658,2.232
"1762","copy","bedroom",12,1,1,2.849,10,0.25,1,0,0,0.571,NA,NA,NA,NA,"paste",0,1.697,2.747
"1762","process","joker",21,1,1,3.821,2,0.05,1,0,0,4.55,NA,NA,NA,NA,"server",0,2.001,3.064
"1762","mill","feast",14,1,1,1.904,21,0.525,1,1,1,0.984,NA,NA,NA,NA,"meek",0,2.242,3.667
"1762","bullet","walkway",33,1,1,2.255,20,0.5,0,1,0,0.875,NA,NA,NA,NA,"point",0,2.121,2.805
"1762","banner","glide",9,1,1,1.963,8,0.2,1,0,0,0.837,NA,NA,NA,NA,"flag",0,2.418,3.22
"1762","forest","knob",15,1,1,2.371,13,0.325,1,0,0,0.979,NA,NA,NA,NA,"run",0,2.052,3.146
"1762","chicken","beet",26,1,100,2.631,40,1,0,0,1,0.813,NA,NA,NA,NA,"beet",1,3.579,4.408
"1762","glue","force",22,1,1,1.683,23,0.575,1,1,1,0.719,NA,NA,NA,NA,"page",0,3.786,4.548
"1762","remind","foam",40,1,1,2.435,28,0.7,0,0,1,0.853,NA,NA,NA,NA,"shrimp",0,2.723,4.123
"1762","pork","emperor",10,1,100,2.491,38,0.95,0,0,1,1.197,NA,NA,NA,NA,"ex..something executor",0,3.249,78.547
"1762","collect","loyalty",13,1,1,3.679,26,0.65,1,1,1,0.525,NA,NA,NA,NA,"balls",0,2.752,3.424
"1762","pea","bathtub",2,1,100,2.191,36,0.9,0,0,1,1.509,NA,NA,NA,NA,"bathtub",1,1.403,3.042
"1762","plant","worm",16,1,23,10.558,31,0.775,0,1,0,2.786,NA,NA,NA,NA,"worm",1,3.711,4.179
"1762","prison","loaf",20,1,1,2.231,7,0.175,1,0,0,0.971,NA,NA,NA,NA,"cell",0,1.585,2.212
"1762","smother","surgery",27,1,77,4.83,34,0.85,0,0,1,7.871,NA,NA,NA,NA,"surgery",1,2.545,10.466
"1762","bias","sirloin",23,1,72,3.375,33,0.825,0,0,1,0.688,NA,NA,NA,NA,"sirloin",1,1.386,4.616
"1762","rock","milk",30,1,1,1.909,19,0.475,0,1,0,0.673,NA,NA,NA,NA,"milk",1,1.771,2.473
"1762","visit","glove",17,1,1,2.231,22,0.55,1,1,1,0.735,NA,NA,NA,NA,"frame",0,1.523,2.435
"1762","caring","skirt",38,1,1,2.271,24,0.6,1,1,1,0.673,NA,NA,NA,NA,"can",0,3.113,3.899
"1762","port","cinema",37,1,1,4.573,1,0.025,1,1,1,1.839,NA,NA,NA,NA,"lucy",0,1.784,2.715
"1762","fan","feature",11,1,1,7.181,16,0.4,0,1,0,0.727,NA,NA,NA,NA,"blade",0,1.549,4.722
"1762","bacon","feud",35,1,1,2.191,14,0.35,0,1,0,1.157,NA,NA,NA,NA,"king",0,5.952,8.929
"1762","want","ascent",36,1,1,2.325,11,0.275,1,0,0,0.727,NA,NA,NA,NA,"monkey",0,2.892,3.86
"1762","capital","figure",39,1,1,2.137,5,0.125,1,1,1,0.987,NA,NA,NA,NA,"fight",0,1.477,2.224
"1762","calf","annoy",8,1,27,2.419,32,0.8,0,1,0,0.703,NA,NA,NA,NA,"laugh",0,3.24,4.122
"1762","find","clown",32,1,1,1.754,25,0.625,1,1,1,0.617,NA,NA,NA,NA,"truck",0,3.771,4.555
"1762","replace","roach",25,1,1,3.906,3,0.075,1,0,0,1.159,NA,NA,NA,NA,"log",0,1.39,2.051
"1762","grip","beach",31,1,1,2.594,29,0.725,0,0,1,0.694,NA,NA,NA,NA,"beach",1,1.54,2.442
"1762","link","crisis",5,1,3,2.731,30,0.75,0,1,0,1.331,NA,NA,NA,NA,"bleach",0,25.838,26.669
"1762","climax","saucer",4,1,100,2.583,35,0.875,0,0,1,1.417,NA,NA,NA,NA,"saucer",1,1.447,2.34
"1762","bleach","ruin",28,1,1,3.021,6,0.15,1,1,1,2.397,NA,NA,NA,NA,"road",0,3.753,6.076
"1762","knock","otter",18,1,1,2.107,12,0.3,1,0,0,1.128,NA,NA,NA,NA,"rock",0,1.682,2.63
"1762","need","faucet",34,1,1,2.395,17,0.425,0,1,0,1.049,NA,NA,NA,NA,"brush",0,1.186,4.776
"1762","nerve","bumper",6,1,1,2.959,27,0.675,1,1,1,1.385,NA,NA,NA,NA,"ending",0,1.732,2.518
"1762","fee","chowder",1,1,1,2.717,18,0.45,0,1,0,1.095,NA,NA,NA,NA,"sports",0,2.667,3.595
"1762","date","laugh",29,1,100,2.151,37,0.925,0,0,1,1.167,NA,NA,NA,NA,"raisin",0,2.288,4.913
"1762","biology","temper",7,1,1,2.193,9,0.225,1,0,0,0.743,NA,NA,NA,NA,"microscope",0,1.527,3.279
"1773","pea","bathtub",24,1,43,1.282,14,0.35,1,0,0,0.814,NA,NA,NA,NA,"clown",0,64.474,65.513
"1773","prison","loaf",34,1,47,3.677,17,0.425,0,0,1,0.621,NA,NA,NA,NA,"loaf",1,3.579,4.972
"1773","caring","skirt",15,1,36,1.865,9,0.225,0,1,0,1.552,NA,NA,NA,NA,"skirt",1,2.603,4.575
"1773","rock","milk",29,1,44,1.746,15,0.375,1,0,0,0.814,NA,NA,NA,NA,"sauce",0,3.135,4.143
"1773","process","joker",31,1,39,1.63,11,0.275,0,1,0,1.122,NA,NA,NA,NA,"jokes",0,4.413,5.438
"1773","plant","worm",28,1,57,3.317,28,0.7,1,0,0,0.655,NA,NA,NA,NA,"date",0,7.236,8.8
"1773","pork","emperor",8,1,50,2.351,23,0.575,0,0,1,0.845,NA,NA,NA,NA,"emperor",1,3.344,6.859
"1773","shrink","mafia",26,1,36,2.391,8,0.2,0,1,0,1.378,NA,NA,NA,NA,"feature",0,4.426,5.799
"1773","chicken","beet",1,1,55,1.873,26,0.65,1,0,0,1.102,NA,NA,NA,NA,"visit",0,5.091,6.134
"1773","capital","figure",22,1,48,2.079,18,0.45,0,0,1,0.685,NA,NA,NA,NA,"beach",0,2.023,3.618
"1773","bias","sirloin",27,1,57,3.019,27,0.675,1,1,1,0.99,NA,NA,NA,NA,"similar",0,3.574,4.967
"1773","anger","decay",17,1,15,4.492,3,0.075,0,1,0,0.878,NA,NA,NA,NA,"climate",0,2.061,3.437
"1773","replace","roach",30,1,66,1.626,35,0.875,1,1,1,1.449,NA,NA,NA,NA,"roar",0,2.512,3.52
"1773","collect","loyalty",16,1,53,2.913,24,0.6,0,0,1,0.796,NA,NA,NA,NA,"royalty",0,4.056,5.812
"1773","port","cinema",3,1,48,1.905,19,0.475,0,0,1,0.697,NA,NA,NA,NA,"grip",0,6.701,7.678
"1773","banner","glide",13,1,79,1.765,40,1,1,1,1,1.243,NA,NA,NA,NA,"feature",0,2.546,4.044
"1773","fan","feature",4,1,25,2.809,4,0.1,0,0,1,1.02,NA,NA,NA,NA,"figure",0,3.048,4.204
"1773","link","crisis",7,1,61,1.714,32,0.8,1,0,0,1.811,NA,NA,NA,NA,"cinema",0,3.64,5.725
"1773","bleach","ruin",14,1,65,1.708,33,0.825,1,1,1,0.758,NA,NA,NA,NA,"ruin",1,2.748,3.399
"1773","calf","annoy",9,1,41,2.655,12,0.3,0,1,0,0.621,NA,NA,NA,NA,"anger",0,4.244,5.175
"1773","want","ascent",40,1,49,2.165,22,0.55,1,0,0,1.427,NA,NA,NA,NA,"date",0,1.995,3.609
"1773","nerve","bumper",23,1,61,3.154,31,0.775,1,0,0,3.662,NA,NA,NA,NA,"temper",0,4.93,7.924
"1773","fee","chowder",19,1,38,1.484,10,0.25,0,1,0,0.767,NA,NA,NA,NA,"chowder",1,3.197,4.962
"1773","need","faucet",21,1,49,2.307,20,0.5,0,0,1,0.939,NA,NA,NA,NA,"process",0,3.181,4.587
"1773","climax","saucer",35,1,77,4.937,39,0.975,1,1,1,1.442,NA,NA,NA,NA,"sauce",0,1.802,2.964
"1773","visit","glove",6,1,75,2.962,38,0.95,1,1,1,1.054,NA,NA,NA,NA,"mill",0,5.006,5.9
"1773","risk","zero",38,1,65,1.35,34,0.85,1,0,0,0.734,NA,NA,NA,NA,"portal",0,3.023,4.381
"1773","mill","feast",25,1,49,1.714,21,0.525,0,0,1,0.735,NA,NA,NA,NA,"fan",0,3.489,4.117
"1773","copy","bedroom",32,1,69,2.362,37,0.925,1,0,0,0.686,NA,NA,NA,NA,"anger",0,2.083,4.404
"1773","bullet","walkway",2,1,33,9.801,5,0.125,0,0,1,7.197,NA,NA,NA,NA,"smother",0,2.7,3.951
"1773","date","laugh",18,1,10,1.454,2,0.05,0,1,0,0.642,NA,NA,NA,NA,"laugh",1,2.012,7.136
"1773","find","clown",33,1,34,1.422,7,0.175,0,1,0,0.767,NA,NA,NA,NA,"clown",1,5.717,6.957
"1773","forest","knob",20,1,33,2.953,6,0.15,0,0,1,4.668,NA,NA,NA,NA,"caring",0,4.793,10.088
"1773","bacon","feud",11,1,55,1.794,25,0.625,1,1,1,1.23,NA,NA,NA,NA,"loyalty",0,4.235,5.925
"1773","remind","foam",5,1,45,1.586,16,0.4,1,0,0,0.59,NA,NA,NA,NA,"biology",0,3.167,6.874
"1773","biology","temper",39,1,43,5.322,13,0.325,0,1,0,6.033,NA,NA,NA,NA,"temper",1,3.31,4.511
"1773","knock","otter",12,1,61,1.714,30,0.75,1,1,1,1.163,NA,NA,NA,NA,"forward",0,2.139,3.707
"1773","smother","surgery",36,1,60,2.142,29,0.725,1,1,1,0.706,NA,NA,NA,NA,"capital",0,6.603,8.263
"1773","glue","force",37,1,68,1.701,36,0.9,1,1,1,0.826,NA,NA,NA,NA,"date",0,8.285,9.201
"1773","grip","beach",10,1,8,2.094,1,0.025,0,1,0,0.864,NA,NA,NA,NA,"beach",1,2.033,2.999
"1803","grip","beach",36,1,100,9.647,38,0.95,1,1,1,1.247,NA,NA,NA,NA,"beach",1,3.199,7.018
"1803","date","laugh",40,1,72,6.143,35,0.875,1,1,1,0.999,NA,NA,NA,NA,"laugh",1,2.484,6.629
"1803","collect","loyalty",24,1,1,15.527,16,0.4,1,0,0,0.599,NA,NA,NA,NA,"skip",0,28.37,42.074
"1803","prison","loaf",34,1,100,5.367,40,1,1,1,1,1.624,NA,NA,NA,NA,"loaf",1,2.409,6.502
"1803","process","joker",8,1,1,6.591,17,0.425,1,0,0,0.734,NA,NA,NA,NA,"skip",0,13.121,15.94
"1803","link","crisis",16,1,1,1.983,22,0.55,0,0,1,0.719,NA,NA,NA,NA,"crisis",1,12.341,16.165
"1803","remind","foam",1,1,1,2.039,25,0.625,0,0,1,0.798,NA,NA,NA,NA,"skip",0,2.449,5.294
"1803","need","faucet",15,1,1,4.047,7,0.175,0,1,0,1.276,NA,NA,NA,NA,"skip",0,7.898,10.573
"1803","nerve","bumper",18,1,1,5.015,3,0.075,0,1,0,0.83,NA,NA,NA,NA,"skip",0,10.853,13.26
"1803","chicken","beet",23,1,1,19.031,6,0.15,0,1,0,0.83,NA,NA,NA,NA,"beet",1,3.669,5.95
"1803","copy","bedroom",26,1,25,10.375,33,0.825,1,0,0,1.303,NA,NA,NA,NA,"skip",0,8.881,11.037
"1803","want","ascent",35,1,1,1.768,27,0.675,0,0,1,0.814,NA,NA,NA,NA,"skip",0,6.537,9.702
"1803","pea","bathtub",2,1,1,2.231,21,0.525,0,0,1,0.679,NA,NA,NA,NA,"bathtub",1,4.254,8.558
"1803","forest","knob",29,1,1,2.079,23,0.575,0,0,1,0.703,NA,NA,NA,NA,"knob",1,3.387,6.478
"1803","mill","feast",25,1,2,2.983,31,0.775,1,0,0,1.423,NA,NA,NA,NA,"skip",0,2.334,4.374
"1803","fan","feature",27,1,1,2.615,20,0.5,0,0,1,0.767,NA,NA,NA,NA,"skip",0,8.819,10.966
"1803","visit","glove",30,1,1,6.543,8,0.2,0,1,0,1.072,NA,NA,NA,NA,"skip",0,13.461,17.773
"1803","shrink","mafia",22,1,1,6.063,11,0.275,1,0,0,1.159,NA,NA,NA,NA,"skip",0,3.078,5.366
"1803","plant","worm",21,1,1,2.799,26,0.65,0,0,1,0.695,NA,NA,NA,NA,"worm",1,3.791,6.662
"1803","rock","milk",6,1,1,7.663,5,0.125,0,1,0,1.064,NA,NA,NA,NA,"skip",0,9.646,15.845
"1803","find","clown",3,1,1,3.567,10,0.25,0,1,0,1.839,NA,NA,NA,NA,"skip",0,2.963,8.566
"1803","risk","zero",4,1,100,20.909,37,0.925,1,1,1,8.589,NA,NA,NA,NA,"zero",1,10.05,13.246
"1803","bleach","ruin",37,1,1,16.086,13,0.325,1,0,0,1.095,NA,NA,NA,NA,"ruin",1,2.929,10.213
"1803","calf","annoy",17,1,1,2.015,24,0.6,0,0,1,0.711,NA,NA,NA,NA,"annoy",1,3.132,9.87
"1803","glue","force",9,1,1,6.543,2,0.05,0,1,0,2.023,NA,NA,NA,NA,"skip",0,2.133,5.766
"1803","fee","chowder",5,1,1,7.712,18,0.45,1,0,0,0.838,NA,NA,NA,NA,"skip",0,4.571,8.158
"1803","smother","surgery",14,1,21,18.95,32,0.8,1,1,1,1.223,NA,NA,NA,NA,"skip",0,3.861,7.422
"1803","bias","sirloin",28,1,25,5.255,34,0.85,1,1,1,5.207,NA,NA,NA,NA,"skip",0,2.386,6.358
"1803","bullet","walkway",13,1,1,4.6,30,0.75,1,1,1,0.727,NA,NA,NA,NA,"skip",0,13.172,16.628
"1803","banner","glide",33,1,1,2.487,4,0.1,0,1,0,3.911,NA,NA,NA,NA,"skip",0,8.058,11.478
"1803","replace","roach",32,1,1,3.127,14,0.35,1,0,0,1.247,NA,NA,NA,NA,"skip",0,4.645,8.18
"1803","anger","decay",20,1,100,5.758,39,0.975,1,1,1,1.071,NA,NA,NA,NA,"decay",1,8.311,11.702
"1803","capital","figure",11,1,1,8.247,12,0.3,1,0,0,1.263,NA,NA,NA,NA,"skip",0,2.43,5.35
"1803","pork","emperor",38,1,1,2.151,29,0.725,1,1,1,0.839,NA,NA,NA,NA,"power",0,7.458,11.373
"1803","bacon","feud",19,1,1,2.91,19,0.475,0,0,1,2.863,NA,NA,NA,NA,"crisis",0,31.066,35.529
"1803","knock","otter",7,1,1,3.617,15,0.375,1,0,0,1.285,NA,NA,NA,NA,"skip",0,38.02,41.907
"1803","climax","saucer",12,1,1,13.182,9,0.225,0,1,0,0.839,NA,NA,NA,NA,"feature",0,17.391,21.656
"1803","biology","temper",10,1,74,11.111,36,0.9,1,1,1,0.912,NA,NA,NA,NA,"temper",1,4.663,10.774
"1803","caring","skirt",39,1,1,11.046,1,0.025,0,1,0,2.775,NA,NA,NA,NA,"bumper",0,34.249,38.489
"1803","port","cinema",31,1,1,2.072,28,0.7,0,0,1,0.888,NA,NA,NA,NA,"skip",0,13.662,17.996
"1818","capital","figure",27,1,59,6.744,35,0.875,0,0,1,0.678,NA,NA,NA,NA,"collect",0,9.969,12.109
"1818","want","ascent",31,1,6,3.437,21,0.525,0,1,0,0.776,NA,NA,NA,NA,"soap",0,2.974,3.837
"1818","fee","chowder",36,1,1,2.989,8,0.2,1,0,0,0.636,NA,NA,NA,NA,"dirt",0,3.104,12.173
"1818","visit","glove",29,1,1,2.705,11,0.275,0,1,0,0.581,NA,NA,NA,NA,"SKIP",0,1.812,2.63
"1818","pork","emperor",7,1,29,2.05,31,0.775,0,0,1,0.643,NA,NA,NA,NA,"soda",0,3.637,6.255
"1818","nerve","bumper",37,1,9,5.079,24,0.6,0,1,0,8.453,NA,NA,NA,NA,"agony",0,3.574,5.11
"1818","climax","saucer",30,1,39,6.516,33,0.825,0,0,1,0.664,NA,NA,NA,NA,"anger",0,3.972,5.775
"1818","bleach","ruin",5,1,1,7.18,1,0.025,1,0,0,11.604,NA,NA,NA,NA,"SKIP",0,2.375,3.439
"1818","mill","feast",4,1,1,4.96,20,0.5,1,1,1,0.588,NA,NA,NA,NA,"corn",0,1.952,2.855
"1818","fan","feature",21,1,1,2.062,4,0.1,1,0,0,0.817,NA,NA,NA,NA,"SKIP",0,2.497,3.332
"1818","risk","zero",28,1,100,2.564,38,0.95,0,0,1,0.671,NA,NA,NA,NA,"zero",1,2.646,3.819
"1818","shrink","mafia",35,1,23,2.314,29,0.725,0,1,0,0.717,NA,NA,NA,NA,"SKIP",0,4.337,5.312
"1818","smother","surgery",24,1,33,3.051,32,0.8,0,1,0,0.557,NA,NA,NA,NA,"small",0,2.487,5.141
"1818","chicken","beet",13,1,1,1.961,12,0.3,1,1,1,1.308,NA,NA,NA,NA,"worm",0,2.118,2.838
"1818","glue","force",3,1,8,2.469,23,0.575,0,1,0,0.794,NA,NA,NA,NA,"force",1,3.8,8.014
"1818","calf","annoy",15,1,12,2.658,25,0.625,0,1,0,0.721,NA,NA,NA,NA,"SKIP",0,3.828,4.701
"1818","collect","loyalty",10,1,100,4.938,39,0.975,0,0,1,0.582,NA,NA,NA,NA,"Equity",0,17.845,26.061
"1818","copy","bedroom",17,1,1,2.575,6,0.15,1,0,0,0.97,NA,NA,NA,NA,"paper",0,1.799,2.668
"1818","port","cinema",16,1,1,1.773,17,0.425,1,1,1,0.634,NA,NA,NA,NA,"commerce",0,4.069,6.04
"1818","bacon","feud",20,1,1,1.923,14,0.35,1,1,1,1.004,NA,NA,NA,NA,"worm",0,2.493,3.207
"1818","bias","sirloin",2,1,1,2.1,13,0.325,1,1,1,0.621,NA,NA,NA,NA,"SKIP",0,1.554,2.293
"1818","grip","beach",6,1,1,5.03,5,0.125,1,0,0,0.483,NA,NA,NA,NA,"SKIP",0,2.534,3.493
"1818","find","clown",8,1,1,1.878,18,0.45,1,1,1,0.685,NA,NA,NA,NA,"town",0,5.298,6.02
"1818","link","crisis",38,1,1,1.887,19,0.475,1,1,1,0.554,NA,NA,NA,NA,"SKIP",0,3.592,4.336
"1818","replace","roach",11,1,17,3.023,27,0.675,0,1,0,0.749,NA,NA,NA,NA,"SKIP",0,8.925,9.634
"1818","anger","decay",33,1,100,2.069,40,1,0,0,1,0.626,NA,NA,NA,NA,"decay",1,1.695,2.831
"1818","forest","knob",9,1,1,2.489,7,0.175,1,0,0,0.591,NA,NA,NA,NA,"dirt",0,2.23,3.042
"1818","date","laugh",19,1,1,4.326,3,0.075,1,0,0,0.89,NA,NA,NA,NA,"SKIP",0,2.656,3.462
"1818","need","faucet",39,1,1,2.921,10,0.25,1,0,0,0.865,NA,NA,NA,NA,"acquire",0,9.213,11.236
"1818","process","joker",23,1,1,1.968,15,0.375,1,1,1,0.561,NA,NA,NA,NA,"copy",0,2.709,3.526
"1818","knock","otter",22,1,1,1.855,16,0.4,1,1,1,0.524,NA,NA,NA,NA,"tree",0,3.894,4.877
"1818","bullet","walkway",25,1,57,3.101,34,0.85,0,0,1,0.783,NA,NA,NA,NA,"walkway",1,3.772,16.828
"1818","rock","milk",18,1,1,2.079,9,0.225,1,0,0,0.71,NA,NA,NA,NA,"bottom",0,1.776,2.808
"1818","caring","skirt",12,1,1,3.824,2,0.05,1,0,0,0.902,NA,NA,NA,NA,"SKIP",0,1.602,2.618
"1818","prison","loaf",34,1,14,1.981,26,0.65,1,1,1,0.526,NA,NA,NA,NA,"trap",0,2.47,3.275
"1818","pea","bathtub",26,1,79,3.461,37,0.925,0,0,1,0.467,NA,NA,NA,NA,"SKIP",0,2.076,2.828
"1818","biology","temper",40,1,69,3.477,36,0.9,0,0,1,0.767,NA,NA,NA,NA,"anger",0,5.492,6.306
"1818","banner","glide",14,1,7,3.789,22,0.55,0,1,0,0.89,NA,NA,NA,NA,"ripple",0,3.548,6.907
"1818","remind","foam",1,1,25,3.881,30,0.75,0,1,0,0.675,NA,NA,NA,NA,"SKIP",0,1.61,2.529
"1818","plant","worm",32,1,18,1.978,28,0.7,0,0,1,0.533,NA,NA,NA,NA,"worm",1,1.896,2.683
"2026","date","laugh",31,1,78,3.236,12,0.3,1,0,0,1.461,NA,NA,NA,NA,"laugh",1,24.243,26.215
"2026","collect","loyalty",32,1,75,3.275,8,0.2,1,0,0,1.355,NA,NA,NA,NA,"loyalty",1,11.982,14.573
"2026","mill","feast",11,1,61,3.109,2,0.05,1,1,1,1.953,NA,NA,NA,NA,"feast",1,98.944,101.378
"2026","chicken","beet",17,1,84,3.557,24,0.6,0,0,1,1.508,NA,NA,NA,NA,"beet",1,15.704,17.196
"2026","bias","sirloin",3,1,99,3.395,40,1,0,1,0,1.33,NA,NA,NA,NA,"sirloin",1,49.421,51.853
"2026","rock","milk",4,1,71,2.975,3,0.075,1,1,1,1.269,NA,NA,NA,NA,"milk",1,29.066,31.103
"2026","find","clown",5,1,81,5.784,15,0.375,1,1,1,2.877,NA,NA,NA,NA,"clown",1,11.718,13.703
"2026","anger","decay",16,1,88,4.281,32,0.8,0,0,1,1.93,NA,NA,NA,NA,"decay",1,10.896,12.591
"2026","prison","loaf",38,1,86,2.922,31,0.775,0,0,1,1.411,NA,NA,NA,NA,"loaf",1,11.251,12.516
"2026","pea","bathtub",18,1,76,2.474,10,0.25,1,1,1,1.496,NA,NA,NA,NA,"bathtub",1,5.481,8.192
"2026","forest","knob",27,1,81,8.263,18,0.45,1,0,0,2.094,NA,NA,NA,NA,"knob",1,4.973,7.732
"2026","bacon","feud",2,1,77,5.582,11,0.275,1,0,0,3.539,NA,NA,NA,NA,"feud",1,4.196,5.654
"2026","bleach","ruin",36,1,81,2.61,17,0.425,1,1,1,1.513,NA,NA,NA,NA,"ruin",1,8.858,9.87
"2026","caring","skirt",33,1,91,4.208,35,0.875,0,1,0,1.286,NA,NA,NA,NA,"skirt",1,11.708,13.35
"2026","banner","glide",23,1,85,2.737,27,0.675,0,1,0,12.786,NA,NA,NA,NA,"glide",1,5.402,7.05
"2026","bullet","walkway",9,1,91,3.657,34,0.85,0,1,0,1.357,NA,NA,NA,NA,"runway",0,5.139,6.746
"2026","process","joker",26,1,75,2.896,9,0.225,1,0,0,1.133,NA,NA,NA,NA,"joker",1,4.503,6.437
"2026","shrink","mafia",28,1,73,2.597,6,0.15,1,1,1,1.818,NA,NA,NA,NA,"mafia",1,7.715,9.098
"2026","grip","beach",34,1,84,3.33,23,0.575,1,1,1,1.531,NA,NA,NA,NA,"beach",1,3.495,4.686
"2026","want","ascent",13,1,95,4.362,37,0.925,0,0,1,1.901,NA,NA,NA,NA,"ascent",1,5.669,7.164
"2026","capital","figure",30,1,85,2.863,28,0.7,0,1,0,1.389,NA,NA,NA,NA,"figure",1,6.322,8.118
"2026","link","crisis",40,1,89,4.487,33,0.825,0,1,0,1.766,NA,NA,NA,NA,"crisis",1,17.027,18.766
"2026","copy","bedroom",22,1,81,2.947,16,0.4,1,1,1,1.39,NA,NA,NA,NA,"bedroom",1,20.701,27.211
"2026","remind","foam",35,1,97,3.592,39,0.975,0,0,1,1.21,NA,NA,NA,NA,"foam",1,9.437,12.246
"2026","pork","emperor",7,1,85,4.991,26,0.65,0,0,1,1.479,NA,NA,NA,NA,"emperor",1,5.177,10.314
"2026","port","cinema",6,1,92,3.204,36,0.9,0,0,1,1.855,NA,NA,NA,NA,"cinema",1,8.515,11.72
"2026","nerve","bumper",24,1,71,3.047,5,0.125,1,0,0,1.574,NA,NA,NA,NA,"bumper",1,22.261,24.909
"2026","replace","roach",19,1,71,2.82,4,0.1,1,0,0,1.936,NA,NA,NA,NA,"roach",1,10.601,13.687
"2026","glue","force",8,1,95,3.662,38,0.95,0,1,0,1.35,NA,NA,NA,NA,"force",1,6.014,8.085
"2026","smother","surgery",21,1,80,2.53,14,0.35,1,0,0,1.175,NA,NA,NA,NA,"surgery",1,5.485,8.728
"2026","calf","annoy",20,1,81,2.743,19,0.475,0,1,0,1.286,NA,NA,NA,NA,"annoy",1,7.176,10.344
"2026","risk","zero",1,1,85,12.363,25,0.625,0,0,1,11.763,NA,NA,NA,NA,"zero",1,10.355,12.91
"2026","fee","chowder",39,1,86,3.939,29,0.725,0,0,1,1.955,NA,NA,NA,NA,"chowder",1,23.038,25.659
"2026","fan","feature",25,1,73,7.163,7,0.175,1,0,0,2.539,NA,NA,NA,NA,"feature",1,6.466,15.617
"2026","visit","glove",10,1,83,3.029,22,0.55,1,1,1,1.425,NA,NA,NA,NA,"glove",1,7.461,9.543
"2026","biology","temper",29,1,81,2.768,21,0.525,0,1,0,1.468,NA,NA,NA,NA,"temper",1,3.434,6.131
"2026","need","faucet",12,1,86,4.052,30,0.75,0,0,1,2.197,NA,NA,NA,NA,"faucet",1,5.416,8.104
"2026","knock","otter",37,1,61,3.929,1,0.025,1,1,1,1.843,NA,NA,NA,NA,"otter",1,4.858,6.673
"2026","plant","worm",15,1,78,2.688,13,0.325,1,0,0,1.221,NA,NA,NA,NA,"worm",1,3.199,5.449
"2026","climax","saucer",14,1,81,2.516,20,0.5,0,1,0,0.989,NA,NA,NA,NA,"saucer",1,6.677,9.541
"2035","banner","glide",19,1,8,8.349,13,0.325,0,0,1,5.087,NA,NA,NA,NA,"glide",1,31.19,33.13
"2035","process","joker",34,1,7,13.373,10,0.25,0,1,0,0.919,NA,NA,NA,NA,"joker",1,5.594,7.956
"2035","date","laugh",4,1,64,10.926,25,0.625,0,0,1,5.468,NA,NA,NA,NA,"laugh",1,3.005,5.406
"2035","glue","force",35,1,93,7.869,34,0.85,1,1,1,1.103,NA,NA,NA,NA,"force",1,2.235,3.973
"2035","smother","surgery",37,1,9,9.437,14,0.35,1,0,0,1.493,NA,NA,NA,NA,"SKIP",0,17.045,34.165
"2035","port","cinema",1,1,93,5.678,35,0.875,1,1,1,0.894,NA,NA,NA,NA,"cinema ",0,5.053,14.631
"2035","forest","knob",40,1,93,7.389,36,0.9,1,1,1,0.822,NA,NA,NA,NA,"knob",1,1.372,3.39
"2035","copy","bedroom",15,1,12,9.51,18,0.45,1,0,0,0.694,NA,NA,NA,NA,"bedroom",1,11.401,14.406
"2035","rock","milk",29,1,81,15.829,30,0.75,0,0,1,5.165,NA,NA,NA,NA,"milk",1,2.957,7.943
"2035","calf","annoy",38,1,95,26.661,39,0.975,1,1,1,0.918,NA,NA,NA,NA,"angry",0,6.228,8.317
"2035","biology","temper",10,1,16,7.532,19,0.475,1,0,0,0.654,NA,NA,NA,NA,"SKIP",0,33.387,36.724
"2035","chicken","beet",28,1,4,12.599,1,0.025,0,1,0,6.654,NA,NA,NA,NA,"beet",1,2.732,4.422
"2035","caring","skirt",32,1,6,9.693,8,0.2,0,0,1,0.854,NA,NA,NA,NA,"skirt",1,11.334,14.031
"2035","fee","chowder",21,1,4,13.612,2,0.05,0,1,0,0.79,NA,NA,NA,NA,"chowder",1,3.643,6.085
"2035","fan","feature",25,1,66,5.709,26,0.65,0,0,1,4.918,NA,NA,NA,NA,"feather",0,2.592,4.454
"2035","risk","zero",39,1,95,9.926,38,0.95,1,1,1,1.538,NA,NA,NA,NA,"zero",1,1.357,10.55
"2035","pork","emperor",16,1,7,27.277,11,0.275,0,1,0,1.415,NA,NA,NA,NA,"emperor ",0,4.494,40.942
"2035","prison","loaf",6,1,36,20.206,21,0.525,1,0,0,0.902,NA,NA,NA,NA,"coat",0,21.148,23.237
"2035","shrink","mafia",9,1,90,5.717,33,0.825,1,1,1,0.919,NA,NA,NA,NA,"mafia",1,3.923,6.141
"2035","visit","glove",13,1,6,8.966,5,0.125,0,1,0,0.814,NA,NA,NA,NA,"SKIP",0,11.524,13.902
"2035","bleach","ruin",36,1,47,35.221,24,0.6,1,0,0,0.859,NA,NA,NA,NA,"ruin",1,2.06,3.822
"2035","replace","roach",27,1,7,15.475,12,0.3,0,0,1,0.971,NA,NA,NA,NA,"roach ",0,12.008,16.39
"2035","knock","otter",11,1,6,24.444,4,0.1,0,1,0,1.404,NA,NA,NA,NA,"otter",1,2.277,3.942
"2035","climax","saucer",24,1,5,32.811,3,0.075,0,1,0,2.99,NA,NA,NA,NA,"saucer",1,5.478,8.198
"2035","anger","decay",7,1,94,10.271,37,0.925,1,1,1,0.972,NA,NA,NA,NA,"decay",1,14.903,18.15
"2035","pea","bathtub",14,1,70,16.276,27,0.675,0,0,1,1.551,NA,NA,NA,NA,"bathtub",1,1.627,4.02
"2035","plant","worm",17,1,95,4.998,40,1,1,1,1,0.782,NA,NA,NA,NA,"worm",1,1.388,2.95
"2035","need","faucet",31,1,7,12.237,9,0.225,0,1,0,0.862,NA,NA,NA,NA,"faucet ",0,4.516,6.71
"2035","bias","sirloin",30,1,10,15.292,16,0.4,0,0,1,1.95,NA,NA,NA,NA,"sirloin ",0,2.221,7.639
"2035","mill","feast",18,1,87,5.061,32,0.8,1,1,1,0.774,NA,NA,NA,NA,"feast",1,3.15,5.103
"2035","bullet","walkway",26,1,37,20.74,22,0.55,1,0,0,0.862,NA,NA,NA,NA,"walkway",1,2.019,4.093
"2035","remind","foam",22,1,10,9.141,15,0.375,1,0,0,0.774,NA,NA,NA,NA,"SKIP",0,15.908,17.806
"2035","bacon","feud",23,1,73,13.98,28,0.7,0,0,1,2.799,NA,NA,NA,NA,"feud",1,4.781,7.311
"2035","capital","figure",33,1,85,15.163,31,0.775,1,1,1,0.829,NA,NA,NA,NA,"figure",1,3.486,5.734
"2035","find","clown",20,1,74,10.525,29,0.725,0,0,1,1.388,NA,NA,NA,NA,"SKIP",0,10.389,12.407
"2035","collect","loyalty",12,1,6,9.029,6,0.15,0,1,0,0.869,NA,NA,NA,NA,"loyalty  ",0,3.723,23.365
"2035","grip","beach",2,1,46,8.283,23,0.575,1,0,0,0.83,NA,NA,NA,NA,"beach",1,6.819,8.892
"2035","want","ascent",5,1,12,7.125,17,0.425,1,0,0,0.863,NA,NA,NA,NA,"SKIP",0,20.699,22.822
"2035","link","crisis",8,1,6,5.645,7,0.175,0,1,0,0.926,NA,NA,NA,NA,"crisis ",0,2.292,6.958
"2035","nerve","bumper",3,1,29,3.126,20,0.5,1,0,0,0.759,NA,NA,NA,NA,"SKIP",0,11.42,13.494
"2109","forest","knob",9,1,1,2.86,18,0.45,1,0,0,2.196,NA,NA,NA,NA,"skip",0,12.016,18.385
"2109","glue","force",18,1,1,4.258,17,0.425,1,0,0,0.991,NA,NA,NA,NA,"skip",0,7.014,9.991
"2109","mill","feast",1,1,1,3.389,22,0.55,0,0,1,0.876,NA,NA,NA,NA,"feast",1,9.232,13.819
"2109","plant","worm",39,1,1,3.188,4,0.1,0,1,0,1.241,NA,NA,NA,NA,"skip",0,11.176,13.983
"2109","capital","figure",2,1,20,4.639,37,0.925,1,1,1,3.25,NA,NA,NA,NA,"anger",0,14.386,17.393
"2109","shrink","mafia",36,1,20,8.021,36,0.9,1,1,1,1.977,NA,NA,NA,NA,"vacant",0,13.201,18.11
"2109","visit","glove",22,1,1,3.914,3,0.075,0,1,0,1.296,NA,NA,NA,NA,"glove",1,6.662,10.935
"2109","chicken","beet",37,1,20,5.164,38,0.95,1,1,1,1.094,NA,NA,NA,NA,"park",0,14.789,19.766
"2109","fan","feature",20,1,1,3.234,35,0.875,1,1,1,1.304,NA,NA,NA,NA,"need",0,8.849,13.21
"2109","want","ascent",5,1,1,3.585,29,0.725,0,0,1,1.007,NA,NA,NA,NA,"vacant",0,15.437,22.074
"2109","need","faucet",10,1,1,3.398,26,0.65,0,0,1,1.093,NA,NA,NA,NA,"facet",0,8.249,12.578
"2109","pork","emperor",4,1,1,2.883,23,0.575,0,0,1,1.406,NA,NA,NA,NA,"emperor",1,6.744,11.265
"2109","find","clown",15,1,1,3.279,32,0.8,1,1,1,0.985,NA,NA,NA,NA,"skip",0,14.078,17.678
"2109","link","crisis",32,1,1,3.725,31,0.775,1,1,1,1.077,NA,NA,NA,NA,"skip",0,11.049,16.062
"2109","banner","glide",14,1,30,9.249,40,1,1,1,1,1.811,NA,NA,NA,NA,"calf",0,9.516,12.553
"2109","climax","saucer",3,1,1,4.72,24,0.6,0,0,1,2.046,NA,NA,NA,NA,"skip",0,10.718,18.515
"2109","rock","milk",17,1,1,3.021,15,0.375,1,0,0,1.118,NA,NA,NA,NA,"cinema",0,11.458,15.427
"2109","fee","chowder",33,1,1,2.664,34,0.85,1,1,1,0.93,NA,NA,NA,NA,"decay",0,10.177,12.532
"2109","copy","bedroom",19,1,1,3.763,7,0.175,0,1,0,0.781,NA,NA,NA,NA,"calf",0,9.446,12.357
"2109","date","laugh",29,1,1,3.451,14,0.35,1,0,0,1.196,NA,NA,NA,NA,"skip",0,7.405,9.61
"2109","risk","zero",34,1,20,6.014,39,0.975,1,1,1,4.43,NA,NA,NA,NA,"skip",0,6.962,9.241
"2109","biology","temper",7,1,1,3.553,25,0.625,0,0,1,1.204,NA,NA,NA,NA,"temper",1,5.199,8.46
"2109","process","joker",8,1,1,2.905,9,0.225,0,1,0,1.71,NA,NA,NA,NA,"joker",1,4.118,6.803
"2109","prison","loaf",13,1,1,2.967,16,0.4,1,0,0,1.405,NA,NA,NA,NA,"skip",0,11.676,14.235
"2109","collect","loyalty",28,1,1,4.811,13,0.325,1,0,0,1.36,NA,NA,NA,NA,"bumper",0,13.646,17.124
"2109","grip","beach",25,1,1,2.844,20,0.5,1,0,0,1.435,NA,NA,NA,NA,"glove",0,5.176,8.249
"2109","anger","decay",31,1,1,3.311,10,0.25,0,1,0,1.164,NA,NA,NA,NA,"decay",1,9.114,12.101
"2109","smother","surgery",27,1,1,3.202,19,0.475,1,0,0,1.43,NA,NA,NA,NA,"annoy",0,8.198,11.365
"2109","remind","foam",11,1,1,3.726,12,0.3,1,0,0,3.023,NA,NA,NA,NA,"skip",0,16.728,22.483
"2109","port","cinema",24,1,1,2.835,30,0.75,0,0,1,1.047,NA,NA,NA,NA,"cinema",1,7.038,11.061
"2109","bullet","walkway",40,1,1,3.58,11,0.275,1,0,0,0.882,NA,NA,NA,NA,"skip",0,8.896,11.123
"2109","nerve","bumper",16,1,1,2.631,6,0.15,0,1,0,1.048,NA,NA,NA,NA,"bumper",1,5.568,8.852
"2109","caring","skirt",38,1,1,3.147,5,0.125,0,1,0,1.282,NA,NA,NA,NA,"skip",0,11.567,14.335
"2109","replace","roach",23,1,1,4.29,21,0.525,0,0,1,3.234,NA,NA,NA,NA,"skip",0,12.456,14.865
"2109","bias","sirloin",21,1,1,10.109,1,0.025,0,1,0,18.209,NA,NA,NA,NA,"bedroom",0,9.082,12.639
"2109","pea","bathtub",12,1,1,3.623,33,0.825,1,1,1,0.836,NA,NA,NA,NA,"visit",0,7.717,11.201
"2109","bacon","feud",6,1,1,3.507,27,0.675,0,0,1,1.045,NA,NA,NA,NA,"fued",0,10.519,14.484
"2109","bleach","ruin",30,1,1,7.195,2,0.05,0,1,0,1.983,NA,NA,NA,NA,"biology",0,9.413,15.508
"2109","knock","otter",26,1,1,2.803,8,0.2,0,1,0,2.359,NA,NA,NA,NA,"skip",0,5.323,7.477
"2109","calf","annoy",35,1,1,3.053,28,0.7,0,0,1,1.147,NA,NA,NA,NA,"annoy",1,3.526,7.11
"2163","biology","temper",12,1,28,2.823,17,0.425,0,0,1,1.015,NA,NA,NA,NA,"anger",0,3.269,5.466
"2163","banner","glide",19,1,25,2.342,10,0.25,0,1,0,1.051,NA,NA,NA,NA,"SKIP",0,3.008,5.267
"2163","date","laugh",6,1,78,3.611,40,1,1,1,1,1.367,NA,NA,NA,NA,"laughter",0,2.324,8.251
"2163","climax","saucer",13,1,72,3.659,37,0.925,1,1,1,1.035,NA,NA,NA,NA,"fence",0,2.794,4.995
"2163","chicken","beet",32,1,28,36.95,14,0.35,1,0,0,1.139,NA,NA,NA,NA,"SKIP",0,8.477,10.651
"2163","fan","feature",26,1,24,2.359,7,0.175,0,1,0,1.171,NA,NA,NA,NA,"SKIP",0,2.193,4.407
"2163","port","cinema",31,1,44,2.455,30,0.75,1,1,1,0.971,NA,NA,NA,NA,"wall",0,2.769,4.743
"2163","shrink","mafia",3,1,63,1.859,34,0.85,1,1,1,0.843,NA,NA,NA,NA,"ruin",0,4.002,6.043
"2163","link","crisis",28,1,73,3.011,38,0.95,1,1,1,2.295,NA,NA,NA,NA,"SKIP",0,1.82,3.951
"2163","visit","glove",37,1,40,2.295,28,0.7,0,0,1,1.107,NA,NA,NA,NA,"SKIP",0,1.268,3.895
"2163","need","faucet",14,1,28,2.131,15,0.375,1,0,0,1.271,NA,NA,NA,NA,"SKIP",0,1.461,3.684
"2163","plant","worm",17,1,34,5.502,19,0.475,1,0,0,1.115,NA,NA,NA,NA,"beach",0,4.737,7.607
"2163","fee","chowder",15,1,34,2.759,20,0.5,0,0,1,2.703,NA,NA,NA,NA,"castle",0,6.6,8.959
"2163","rock","milk",27,1,26,1.927,12,0.3,0,0,1,0.871,NA,NA,NA,NA,"lost",0,9.296,11.675
"2163","bullet","walkway",23,1,16,4.671,1,0.025,0,1,0,0.911,NA,NA,NA,NA,"SKIP",0,2.565,4.775
"2163","bleach","ruin",4,1,65,3.115,35,0.875,1,1,1,2.367,NA,NA,NA,NA,"ruin",1,2.221,4.468
"2163","nerve","bumper",40,1,24,1.863,9,0.225,0,0,1,1.079,NA,NA,NA,NA,"anger",0,3.081,5.159
"2163","pork","emperor",16,1,36,2.483,23,0.575,1,0,0,1.583,NA,NA,NA,NA,"fast",0,3.512,5.356
"2163","glue","force",21,1,27,1.839,13,0.325,0,0,1,0.863,NA,NA,NA,NA,"SKIP",0,2.813,4.795
"2163","copy","bedroom",9,1,75,4.538,39,0.975,1,1,1,1.911,NA,NA,NA,NA,"SKIP",0,1.713,3.831
"2163","knock","otter",33,1,32,2.555,18,0.45,0,0,1,2.467,NA,NA,NA,NA,"saucer",0,1.418,3.891
"2163","risk","zero",11,1,21,1.895,4,0.1,0,1,0,1.371,NA,NA,NA,NA,"break",0,3.509,6.203
"2163","calf","annoy",35,1,36,2.555,22,0.55,1,0,0,5.695,NA,NA,NA,NA,"annoying",0,3.755,7.367
"2163","smother","surgery",5,1,61,2.902,32,0.8,1,0,0,1.159,NA,NA,NA,NA,"break",0,2.393,6.86
"2163","anger","decay",29,1,57,14.07,31,0.775,1,0,0,13.862,NA,NA,NA,NA,"biology",0,3.421,9.107
"2163","collect","loyalty",20,1,23,2.315,6,0.15,0,1,0,1.051,NA,NA,NA,NA,"saucer",0,4.265,6.747
"2163","remind","foam",25,1,23,2.431,5,0.125,0,1,0,1.799,NA,NA,NA,NA,"SKIP",0,1.941,4.215
"2163","pea","bathtub",24,1,36,2.395,24,0.6,0,0,1,1.931,NA,NA,NA,NA,"bedroom",0,3.269,6.039
"2163","want","ascent",38,1,17,2.102,2,0.05,0,1,0,1.178,NA,NA,NA,NA,"SKIP",0,1.652,7.259
"2163","bacon","feud",22,1,28,4.323,16,0.4,1,0,0,1.087,NA,NA,NA,NA,"water",0,1.368,10.491
"2163","replace","roach",2,1,41,1.695,29,0.725,1,1,1,2.795,NA,NA,NA,NA,"SKIP",0,1.66,3.999
"2163","grip","beach",10,1,34,2.223,21,0.525,0,0,1,0.971,NA,NA,NA,NA,"handle",0,2.302,5.239
"2163","bias","sirloin",30,1,24,2.075,8,0.2,0,1,0,1.027,NA,NA,NA,NA,"fence",0,2.485,4.655
"2163","process","joker",34,1,40,2.423,26,0.65,1,0,0,1.695,NA,NA,NA,NA,"castle",0,5.109,7.412
"2163","find","clown",36,1,21,2.635,3,0.075,0,1,0,1.08,NA,NA,NA,NA,"SKIP",0,1.834,6.624
"2163","prison","loaf",39,1,69,3.774,36,0.9,1,1,1,0.952,NA,NA,NA,NA,"bread",0,2.234,4.216
"2163","caring","skirt",7,1,40,2.339,27,0.675,0,0,1,1.767,NA,NA,NA,NA,"joy",0,2.808,4.799
"2163","forest","knob",1,1,62,2.675,33,0.825,1,1,1,1.527,NA,NA,NA,NA,"grain",0,4.209,6.195
"2163","mill","feast",8,1,26,2.319,11,0.275,0,1,0,1.471,NA,NA,NA,NA,"fork",0,3.676,5.662
"2163","capital","figure",18,1,38,4.511,25,0.625,1,0,0,2.951,NA,NA,NA,NA,"building",0,2.343,9.224
"2237","remind","foam",12,1,1,2.055,29,0.725,1,1,1,0.864,NA,NA,NA,NA,"skip",0,12.144,16.674
"2237","plant","worm",9,1,1,2.394,21,0.525,0,0,1,0.864,NA,NA,NA,NA,"worm",1,1.909,3.551
"2237","visit","glove",37,1,1,3.528,7,0.175,0,1,0,0.776,NA,NA,NA,NA,"skip",0,3.198,5.543
"2237","fee","chowder",20,1,1,3.216,3,0.075,0,1,0,1.191,NA,NA,NA,NA,"skip",0,3.613,5.712
"2237","fan","feature",2,1,1,4.783,1,0.025,0,1,0,1.207,NA,NA,NA,NA,"skip",0,12.053,14.302
"2237","pea","bathtub",7,1,30,11.176,37,0.925,1,1,1,0.832,NA,NA,NA,NA,"bathtub",1,3.406,9.327
"2237","rock","milk",8,1,30,6.528,36,0.9,1,1,1,1.68,NA,NA,NA,NA,"milk",1,1.918,3.967
"2237","grip","beach",17,1,1,4.96,6,0.15,0,1,0,1.439,NA,NA,NA,NA,"skip",0,3.053,4.991
"2237","risk","zero",28,1,1,2.64,28,0.7,0,0,1,0.848,NA,NA,NA,NA,"zero",1,12.47,15.713
"2237","prison","loaf",22,1,1,3.207,26,0.65,0,0,1,0.887,NA,NA,NA,NA,"loaf",1,3.405,5.399
"2237","date","laugh",26,1,5,12.902,31,0.775,1,0,0,0.896,NA,NA,NA,NA,"skip",0,2.549,4.591
"2237","anger","decay",24,1,1,2.871,13,0.325,1,0,0,1.159,NA,NA,NA,NA,"skip",0,2.229,4.135
"2237","capital","figure",35,1,1,5.679,12,0.3,1,0,0,1.087,NA,NA,NA,NA,"skip",0,1.822,3.511
"2237","copy","bedroom",4,1,1,3.534,9,0.225,0,1,0,0.767,NA,NA,NA,NA,"skip",0,2.87,4.511
"2237","climax","saucer",6,1,50,11.446,40,1,1,1,1,19.367,NA,NA,NA,NA,"saucer",1,2.124,4.078
"2237","bullet","walkway",3,1,10,11.072,33,0.825,1,1,1,1.104,NA,NA,NA,NA,"sidewalk",0,2.006,4.928
"2237","find","clown",16,1,1,2.182,27,0.675,0,0,1,0.959,NA,NA,NA,NA,"skip",0,2.542,4.473
"2237","process","joker",40,1,1,8.166,20,0.5,0,0,1,1.452,NA,NA,NA,NA,"skip",0,2.557,4.447
"2237","collect","loyalty",21,1,1,2.136,22,0.55,0,0,1,0.76,NA,NA,NA,NA,"skip",0,1.877,3.751
"2237","pork","emperor",15,1,35,10.191,39,0.975,1,1,1,0.944,NA,NA,NA,NA,"emporer",0,1.886,4.448
"2237","banner","glide",30,1,1,4.96,19,0.475,0,0,1,1.536,NA,NA,NA,NA,"glide",1,4.501,6.014
"2237","nerve","bumper",14,1,1,2.774,24,0.6,0,0,1,1.031,NA,NA,NA,NA,"skip",0,2.133,3.943
"2237","caring","skirt",36,1,1,5.102,2,0.05,0,1,0,1.342,NA,NA,NA,NA,"skip",0,1.831,3.552
"2237","mill","feast",23,1,1,2.863,18,0.45,1,0,0,0.992,NA,NA,NA,NA,"skip",0,3.893,5.703
"2237","calf","annoy",19,1,1,7.04,30,0.75,1,1,1,0.847,NA,NA,NA,NA,"annoy",1,1.677,4.119
"2237","knock","otter",5,1,1,1.872,23,0.575,0,0,1,1.856,NA,NA,NA,NA,"skip",0,2.158,4.08
"2237","smother","surgery",31,1,1,5.76,5,0.125,0,1,0,1.119,NA,NA,NA,NA,"skip",0,2.901,6.207
"2237","bleach","ruin",38,1,10,11.447,34,0.85,1,1,1,0.792,NA,NA,NA,NA,"skip",0,2.829,5.015
"2237","want","ascent",18,1,1,4.28,10,0.25,0,1,0,0.935,NA,NA,NA,NA,"skip",0,2.221,4.199
"2237","bias","sirloin",13,1,1,4.888,25,0.625,0,0,1,0.615,NA,NA,NA,NA,"skip",0,31.15,32.863
"2237","link","crisis",33,1,35,24.775,38,0.95,1,0,0,2.182,NA,NA,NA,NA,"frantic",0,2.637,4.999
"2237","need","faucet",1,1,1,2.871,4,0.1,0,1,0,1.44,NA,NA,NA,NA,"skip",0,2.029,3.847
"2237","bacon","feud",11,1,1,5.696,14,0.35,1,0,0,0.672,NA,NA,NA,NA,"skip",0,6.462,8.144
"2237","forest","knob",25,1,1,6.759,15,0.375,1,0,0,4.168,NA,NA,NA,NA,"skip",0,2.846,4.72
"2237","replace","roach",27,1,1,3.648,17,0.425,1,0,0,1.04,NA,NA,NA,NA,"skip",0,1.838,3.56
"2237","port","cinema",34,1,20,8.136,35,0.875,1,1,1,2.199,NA,NA,NA,NA,"skip",0,2.286,4.328
"2237","biology","temper",32,1,1,6.976,8,0.2,0,1,0,1.143,NA,NA,NA,NA,"skip",0,6.094,7.744
"2237","chicken","beet",39,1,10,15.454,32,0.8,1,1,1,0.967,NA,NA,NA,NA,"beet",1,2.79,4.096
"2237","shrink","mafia",29,1,1,2.911,11,0.275,1,0,0,0.696,NA,NA,NA,NA,"skip",0,2.87,4.656
"2237","glue","force",10,1,1,6.983,16,0.4,1,0,0,1.046,NA,NA,NA,NA,"skip",0,1.751,3.52
"2251","smother","surgery",22,1,25,14.182,21,0.525,1,0,0,0.751,NA,NA,NA,NA,"bacon",0,5.134,7.765
"2251","replace","roach",25,1,17,4.75,14,0.35,0,1,0,1.24,NA,NA,NA,NA,"foam",0,2.84,3.929
"2251","link","crisis",3,1,10,9.18,12,0.3,0,1,0,4.149,NA,NA,NA,NA,"SKIP",0,4.302,5.486
"2251","visit","glove",12,1,10,9.672,11,0.275,0,1,0,8.659,NA,NA,NA,NA,"glove",1,2.095,3.344
"2251","fan","feature",2,1,82,4.403,31,0.775,1,1,1,0.807,NA,NA,NA,NA,"feature",1,0.784,2.03
"2251","pea","bathtub",13,1,25,8.644,19,0.475,1,0,0,1.122,NA,NA,NA,NA,"SKIP",0,1.794,3.12
"2251","date","laugh",7,1,75,8.799,30,0.75,0,0,1,1.122,NA,NA,NA,NA,"skirt",0,4.748,6.016
"2251","need","faucet",9,1,8,2.165,10,0.25,0,0,1,1.787,NA,NA,NA,NA,"SKIP",0,6.817,8.049
"2251","bleach","ruin",35,1,100,2.403,36,0.9,1,1,1,0.854,NA,NA,NA,NA,"ruin",1,0.782,1.911
"2251","copy","bedroom",21,1,26,2.356,22,0.55,1,0,0,0.633,NA,NA,NA,NA,"SKIP",0,7.702,8.91
"2251","bullet","walkway",10,1,100,1.874,38,0.95,1,1,1,0.664,NA,NA,NA,NA,"walkway",1,0.755,2.134
"2251","remind","foam",23,1,1,2.743,2,0.05,0,1,0,0.822,NA,NA,NA,NA,"SKIP",0,11.131,12.561
"2251","pork","emperor",26,1,100,2.638,35,0.875,1,1,1,0.814,NA,NA,NA,NA,"emperor",1,0.8,2.661
"2251","collect","loyalty",24,1,89,3.265,33,0.825,1,1,1,0.703,NA,NA,NA,NA,"loyalty",1,0.84,2.199
"2251","shrink","mafia",19,1,25,9.556,20,0.5,1,0,0,0.845,NA,NA,NA,NA,"mafia",1,0.832,1.824
"2251","grip","beach",5,1,100,9.386,34,0.85,1,1,1,1.872,NA,NA,NA,NA,"beach",1,0.825,1.941
"2251","caring","skirt",33,1,1,3.779,5,0.125,0,1,0,0.577,NA,NA,NA,NA,"SKIP",0,9.256,10.352
"2251","knock","otter",17,1,13,7.354,13,0.325,0,1,0,0.759,NA,NA,NA,NA,"SKIP",0,13.952,15
"2251","find","clown",30,1,17,2.34,15,0.375,0,0,1,0.632,NA,NA,NA,NA,"SKIP",0,2.031,3.038
"2251","prison","loaf",16,1,1,2.784,3,0.075,0,1,0,0.601,NA,NA,NA,NA,"SKIP",0,1.631,2.664
"2251","risk","zero",14,1,22,6.388,18,0.45,1,0,0,0.632,NA,NA,NA,NA,"SKIP",0,5.014,6.927
"2251","nerve","bumper",28,1,29,2.624,25,0.625,1,0,0,0.798,NA,NA,NA,NA,"SKIP",0,1.134,2.198
"2251","climax","saucer",15,1,29,5.93,26,0.65,1,0,0,0.633,NA,NA,NA,NA,"SKIP",0,1.031,2.094
"2251","port","cinema",34,1,85,3.372,32,0.8,1,1,1,0.759,NA,NA,NA,NA,"cinema",1,0.808,2.214
"2251","glue","force",1,1,27,8.87,23,0.575,1,0,0,0.672,NA,NA,NA,NA,"SKIP",0,1.435,2.688
"2251","want","ascent",6,1,28,2.664,24,0.6,0,0,1,2.308,NA,NA,NA,NA,"SKIP",0,1.202,2.362
"2251","biology","temper",32,1,31,6.502,27,0.675,1,0,0,1.169,NA,NA,NA,NA,"SKIP",0,0.909,2.014
"2251","bias","sirloin",40,1,1,7.152,1,0.025,0,1,0,0.909,NA,NA,NA,NA,"SKIP",0,1.418,2.582
"2251","anger","decay",20,1,1,1.914,6,0.15,0,1,0,0.822,NA,NA,NA,NA,"SKIP",0,1.146,2.248
"2251","chicken","beet",29,1,1,2.079,8,0.2,0,0,1,0.609,NA,NA,NA,NA,"SKIP",0,0.962,2.321
"2251","rock","milk",38,1,1,4.42,9,0.225,0,0,1,0.609,NA,NA,NA,NA,"milk",1,1.15,2.326
"2251","calf","annoy",27,1,61,11.346,28,0.7,0,0,1,0.735,NA,NA,NA,NA,"annoy",1,0.841,2.111
"2251","forest","knob",4,1,18,9.32,16,0.4,1,0,0,0.68,NA,NA,NA,NA,"SKIP",0,1.169,2.208
"2251","banner","glide",36,1,1,3.374,7,0.175,0,0,1,1.075,NA,NA,NA,NA,"SKIP",0,1.178,2.345
"2251","process","joker",31,1,100,6.009,37,0.925,1,1,1,1.107,NA,NA,NA,NA,"joker",1,0.806,2.246
"2251","plant","worm",18,1,100,3.834,39,0.975,1,1,1,0.672,NA,NA,NA,NA,"worm",1,0.833,1.758
"2251","mill","feast",11,1,20,2.774,17,0.425,0,0,1,0.624,NA,NA,NA,NA,"feast",1,13.337,16.448
"2251","capital","figure",39,1,65,5.69,29,0.725,0,0,1,0.759,NA,NA,NA,NA,"future",0,2.201,3.44
"2251","fee","chowder",37,1,1,2.228,4,0.1,0,1,0,0.704,NA,NA,NA,NA,"SKIP",0,1.246,2.607
"2251","bacon","feud",8,1,100,2.189,40,1,1,1,1,0.878,NA,NA,NA,NA,"feud",1,0.784,1.805
"2341","shrink","mafia",26,1,28,1.039,18,0.45,0,1,0,0.463,NA,NA,NA,NA,"flower",0,4.498,6.438
"2341","bullet","walkway",19,1,34,1.195,30,0.75,1,0,0,0.599,NA,NA,NA,NA,"plate",0,3.705,5.219
"2341","port","cinema",13,1,16,1.346,2,0.05,0,0,1,0.477,NA,NA,NA,NA,"tumble",0,3.697,5.412
"2341","climax","saucer",38,1,23,1.441,11,0.275,0,0,1,0.561,NA,NA,NA,NA,"ready",0,2.83,4.96
"2341","risk","zero",31,1,30,1.409,21,0.525,1,1,1,0.781,NA,NA,NA,NA,"tower",0,4.329,8.022
"2341","banner","glide",36,1,22,1.175,9,0.225,0,0,1,0.679,NA,NA,NA,NA,"school",0,3.928,6.138
"2341","mill","feast",12,1,31,1.065,24,0.6,0,1,0,0.526,NA,NA,NA,NA,"rock",0,3.191,5.033
"2341","prison","loaf",37,1,30,1.239,22,0.55,0,1,0,0.556,NA,NA,NA,NA,"skip",0,1.946,3.607
"2341","date","laugh",15,1,22,1.493,10,0.25,0,1,0,0.647,NA,NA,NA,NA,"skip",0,0.864,2.313
"2341","plant","worm",8,1,21,0.965,7,0.175,0,1,0,0.677,NA,NA,NA,NA,"ready",0,1.303,9.131
"2341","find","clown",17,1,35,1.963,33,0.825,1,0,0,0.961,NA,NA,NA,NA,"skip",0,2.504,6.137
"2341","replace","roach",27,1,7,3.539,1,0.025,0,0,1,6.741,NA,NA,NA,NA,"empty",0,5.074,7.047
"2341","pork","emperor",20,1,26,0.927,15,0.375,0,1,0,0.535,NA,NA,NA,NA,"oven",0,12.389,13.725
"2341","link","crisis",24,1,35,1.075,31,0.775,1,1,1,3.775,NA,NA,NA,NA,"wedding",0,4.204,6.439
"2341","nerve","bumper",28,1,45,1.269,39,0.975,1,0,0,0.554,NA,NA,NA,NA,"bark",0,2.963,8.898
"2341","bias","sirloin",3,1,19,1.229,5,0.125,0,0,1,0.805,NA,NA,NA,NA,"skip",0,1.424,3.507
"2341","caring","skirt",9,1,35,1.719,32,0.8,1,1,1,0.465,NA,NA,NA,NA,"empty",0,2.279,4.033
"2341","grip","beach",40,1,33,1.465,29,0.725,1,0,0,0.489,NA,NA,NA,NA,"fold",0,1.931,5.125
"2341","capital","figure",5,1,27,2.971,16,0.4,1,1,1,0.515,NA,NA,NA,NA,"bureau",0,1.427,7.997
"2341","bleach","ruin",35,1,32,1.327,25,0.625,1,1,1,0.601,NA,NA,NA,NA,"hammer",0,2.155,5.229
"2341","bacon","feud",2,1,35,1.623,34,0.85,1,0,0,0.652,NA,NA,NA,NA,"wig",0,4.487,6.573
"2341","need","faucet",14,1,25,1.551,13,0.325,1,1,1,0.58,NA,NA,NA,NA,"skip",0,1.347,4.083
"2341","glue","force",29,1,32,1.418,26,0.65,1,1,1,0.559,NA,NA,NA,NA,"water",0,1.468,2.265
"2341","chicken","beet",6,1,24,1.661,12,0.3,0,0,1,0.557,NA,NA,NA,NA,"beet",1,1.57,3.577
"2341","biology","temper",25,1,41,1.171,38,0.95,1,0,0,0.545,NA,NA,NA,NA,"table",0,2.293,4.14
"2341","copy","bedroom",11,1,29,0.817,19,0.475,0,1,0,0.529,NA,NA,NA,NA,"pasta",0,2.015,3.951
"2341","smother","surgery",16,1,36,1.917,35,0.875,1,0,0,1.039,NA,NA,NA,NA,"bread",0,1.463,3.201
"2341","rock","milk",22,1,30,1.171,23,0.575,0,1,0,0.575,NA,NA,NA,NA,"township",0,2.182,4.007
"2341","fan","feature",1,1,25,1.524,14,0.35,0,1,0,0.497,NA,NA,NA,NA,"rodeo",0,2.092,4.315
"2341","remind","foam",7,1,30,2.093,20,0.5,1,1,1,0.687,NA,NA,NA,NA,"stopwatch",0,1.67,4.687
"2341","calf","annoy",4,1,19,0.967,4,0.1,0,0,1,0.576,NA,NA,NA,NA,"wink",0,1.403,7.275
"2341","want","ascent",39,1,27,1.033,17,0.425,0,1,0,0.493,NA,NA,NA,NA,"city",0,2.363,4.025
"2341","fee","chowder",10,1,32,1.151,27,0.675,1,1,1,0.611,NA,NA,NA,NA,"skip",0,1.646,3.005
"2341","visit","glove",33,1,32,1.151,28,0.7,1,0,0,0.511,NA,NA,NA,NA,"skip",0,2.686,4.209
"2341","knock","otter",23,1,57,1.515,40,1,1,1,1,0.533,NA,NA,NA,NA,"rappel",0,1.622,7.625
"2341","anger","decay",32,1,18,2.878,3,0.075,0,0,1,0.817,NA,NA,NA,NA,"decay",1,5.69,6.809
"2341","forest","knob",34,1,21,1.225,6,0.15,0,0,1,0.597,NA,NA,NA,NA,"mouse",0,2.441,5.585
"2341","pea","bathtub",18,1,22,1.125,8,0.2,0,0,1,0.553,NA,NA,NA,NA,"skip",0,1.281,2.433
"2341","collect","loyalty",21,1,37,1.065,37,0.925,1,0,0,0.777,NA,NA,NA,NA,"skip",0,0.64,3.217
"2341","process","joker",30,1,36,1.845,36,0.9,1,0,0,0.423,NA,NA,NA,NA,"retention",0,2.558,5.265
"2378","link","crisis",24,1,96,3.178,26,0.65,0,0,1,1.3,NA,NA,NA,NA,"crisis",1,2.419,5.601
"2378","rock","milk",37,1,92,6.007,24,0.6,0,0,1,9.375,NA,NA,NA,NA,"milk",1,1.812,3.465
"2378","risk","zero",12,1,24,4.986,6,0.15,1,1,1,1.782,NA,NA,NA,NA,"glove",0,4.233,5.671
"2378","copy","bedroom",8,1,26,7.398,8,0.2,1,0,0,0.923,NA,NA,NA,NA,"paste",0,1.606,3.724
"2378","bacon","feud",25,1,90,4.875,21,0.525,0,0,1,1.249,NA,NA,NA,NA,"feud",1,1.683,3.461
"2378","smother","surgery",34,1,100,7.09,29,0.725,1,0,0,6.03,NA,NA,NA,NA,"surgery",1,2.105,4.581
"2378","port","cinema",6,1,20,3.806,5,0.125,1,0,0,1.081,NA,NA,NA,NA,"ocean",0,1.399,3.316
"2378","remind","foam",28,1,27,10.184,11,0.275,1,0,0,2.112,NA,NA,NA,NA,"me",0,1.524,2.745
"2378","forest","knob",19,1,76,4.282,17,0.425,1,1,1,3.62,NA,NA,NA,NA,"knob",1,1.665,3.852
"2378","fee","chowder",3,1,83,3.196,19,0.475,1,1,1,1.094,NA,NA,NA,NA,"chowder",1,1.354,5.283
"2378","find","clown",13,1,48,4.633,16,0.4,1,1,1,1.101,NA,NA,NA,NA,"lost",0,1.603,4.018
"2378","replace","roach",16,1,13,2.908,1,0.025,1,0,0,0.987,NA,NA,NA,NA,"me",0,7.902,9.659
"2378","chicken","beet",22,1,100,13.219,32,0.8,0,1,0,5.031,NA,NA,NA,NA,"beet",1,5.276,6.725
"2378","grip","beach",27,1,29,3.565,13,0.325,1,0,0,2.001,NA,NA,NA,NA,"now",0,2.59,4.279
"2378","date","laugh",10,1,100,5.207,30,0.75,0,0,1,1.811,NA,NA,NA,NA,"her",0,8.905,12.868
"2378","visit","glove",7,1,77,4.743,18,0.45,1,1,1,1.605,NA,NA,NA,NA,"glove",1,1.881,6.187
"2378","caring","skirt",29,1,100,3.499,31,0.775,0,1,0,3.307,NA,NA,NA,NA,"skirt",1,1.662,3.271
"2378","glue","force",17,1,100,2.411,34,0.85,0,1,0,0.985,NA,NA,NA,NA,"force",1,2.176,4.051
"2378","nerve","bumper",11,1,27,4.949,9,0.225,1,1,1,1.227,NA,NA,NA,NA,"nail",0,1.846,3.665
"2378","biology","temper",26,1,100,3.069,27,0.675,0,0,1,1.524,NA,NA,NA,NA,"temper",1,1.391,3.498
"2378","plant","worm",36,1,95,3.704,25,0.625,0,0,1,1.131,NA,NA,NA,NA,"worm",1,9.959,13.886
"2378","bleach","ruin",35,1,34,12.01,15,0.375,1,0,0,1.015,NA,NA,NA,NA,"argue",0,3.171,5.039
"2378","knock","otter",40,1,20,3.887,4,0.1,1,0,0,1.067,NA,NA,NA,NA,"knock",0,1.837,4.873
"2378","bias","sirloin",21,1,100,4.785,28,0.7,0,0,1,14.098,NA,NA,NA,NA,"rescue",0,6.856,8.955
"2378","mill","feast",5,1,100,2.351,36,0.9,0,1,0,0.92,NA,NA,NA,NA,"feast",1,2.524,4.611
"2378","want","ascent",31,1,26,5.63,7,0.175,1,1,1,1.057,NA,NA,NA,NA,"need",0,1.392,3.04
"2378","prison","loaf",9,1,100,3.935,35,0.875,0,1,0,1.135,NA,NA,NA,NA,"loaf",1,2.19,3.739
"2378","process","joker",14,1,34,6.899,14,0.35,1,1,1,1.051,NA,NA,NA,NA,"loyalty",0,1.789,4.256
"2378","calf","annoy",30,1,87,5.152,20,0.5,0,0,1,13.041,NA,NA,NA,NA,"annoy",1,1.399,3.338
"2378","anger","decay",15,1,92,4.305,22,0.55,0,0,1,1.315,NA,NA,NA,NA,"decay",1,5.613,8.092
"2378","fan","feature",4,1,18,3.176,2,0.05,1,0,0,1.126,NA,NA,NA,NA,"feature",1,1.403,3.246
"2378","pea","bathtub",18,1,100,3.194,40,1,0,1,0,1.467,NA,NA,NA,NA,"bathtub",1,2.616,5.634
"2378","climax","saucer",39,1,100,2.426,37,0.925,0,1,0,1.13,NA,NA,NA,NA,"hillside",0,6.425,17.964
"2378","capital","figure",38,1,27,4.457,10,0.25,1,1,1,1.329,NA,NA,NA,NA,"city",0,2.687,4.514
"2378","bullet","walkway",23,1,100,3.559,39,0.975,0,1,0,1.27,NA,NA,NA,NA,"walkway",1,1.741,6.553
"2378","collect","loyalty",33,1,100,6.977,38,0.95,0,1,0,1.351,NA,NA,NA,NA,"mafia",0,1.717,4.766
"2378","shrink","mafia",20,1,92,3.377,23,0.575,0,0,1,1.817,NA,NA,NA,NA,"mafia",1,3.062,5.871
"2378","need","faucet",2,1,19,3.338,3,0.075,1,0,0,1.2,NA,NA,NA,NA,"want",0,1.917,3.452
"2378","banner","glide",32,1,28,3.723,12,0.3,1,1,1,0.825,NA,NA,NA,NA,"skate",0,1.652,3.605
"2378","pork","emperor",1,1,100,12.668,33,0.825,0,1,0,1.116,NA,NA,NA,NA,"emporer",0,2.626,5.932
"2380","banner","glide",24,1,64,1.57,20,0.5,0,1,0,0.654,NA,NA,NA,NA,"david",0,4.969,6
"2380","chicken","beet",40,1,75,3.589,35,0.875,0,1,0,1.261,NA,NA,NA,NA,"beet",1,1.586,2.488
"2380","bias","sirloin",26,1,34,2.424,7,0.175,1,1,1,1.102,NA,NA,NA,NA,"net",0,2.921,3.61
"2380","climax","saucer",16,1,100,4.595,40,1,0,1,0,1.011,NA,NA,NA,NA,"saucer",1,1.285,2.627
"2380","calf","annoy",29,1,31,2.333,5,0.125,1,1,1,0.859,NA,NA,NA,NA,"baby",0,1.418,2.522
"2380","bullet","walkway",14,1,57,1.882,16,0.4,1,0,0,0.901,NA,NA,NA,NA,"fast",0,1.22,2.036
"2380","date","laugh",2,1,71,2.001,27,0.675,0,0,1,0.718,NA,NA,NA,NA,"night",0,1.371,2.556
"2380","fan","feature",15,1,30,2.854,4,0.1,1,0,0,0.731,NA,NA,NA,NA,"box",0,1.251,4.815
"2380","knock","otter",3,1,69,3.153,24,0.6,0,0,1,1.05,NA,NA,NA,NA,"knock",0,1.642,2.803
"2380","remind","foam",22,1,32,1.344,6,0.15,1,0,0,0.789,NA,NA,NA,NA,"rewind",0,1.377,2.783
"2380","rock","milk",31,1,74,1.615,33,0.825,0,1,0,0.933,NA,NA,NA,NA,"roll",0,1.211,1.957
"2380","pea","bathtub",30,1,24,1.89,1,0.025,1,1,1,0.779,NA,NA,NA,NA,"green",0,2.593,3.502
"2380","smother","surgery",8,1,41,1.78,12,0.3,1,0,0,1.134,NA,NA,NA,NA,"turkey",0,3.147,4.328
"2380","glue","force",28,1,75,2.033,34,0.85,0,0,1,1.196,NA,NA,NA,NA,"net",0,4.842,5.683
"2380","nerve","bumper",39,1,73,1.935,32,0.8,0,1,0,0.912,NA,NA,NA,NA,"throw",0,2.959,3.879
"2380","want","ascent",1,1,73,3.166,31,0.775,0,0,1,3.318,NA,NA,NA,NA,"need",0,1.064,2.015
"2380","pork","emperor",34,1,40,1.64,11,0.275,1,0,0,0.761,NA,NA,NA,NA,"chicken",0,1.255,3.637
"2380","find","clown",7,1,44,1.89,13,0.325,1,0,0,0.802,NA,NA,NA,NA,"keep",0,1.371,2.096
"2380","biology","temper",20,1,67,1.576,23,0.575,0,0,1,1.933,NA,NA,NA,NA,"nice",0,2.571,3.258
"2380","fee","chowder",36,1,56,1.485,14,0.35,1,0,0,0.809,NA,NA,NA,NA,"leak",0,1.872,2.576
"2380","capital","figure",19,1,40,3.205,10,0.25,1,0,0,3.52,NA,NA,NA,NA,"state",0,1.008,2.157
"2380","mill","feast",25,1,61,1.86,19,0.475,1,0,0,0.77,NA,NA,NA,NA,"run",0,1.071,1.681
"2380","plant","worm",13,1,66,3.095,21,0.525,1,1,1,1.312,NA,NA,NA,NA,"robert",0,1.249,2.19
"2380","prison","loaf",6,1,72,1.738,29,0.725,0,0,1,1.142,NA,NA,NA,NA,"loaf",1,1.628,2.691
"2380","risk","zero",21,1,30,2.133,3,0.075,1,1,1,0.838,NA,NA,NA,NA,"boat",0,3.895,4.741
"2380","bleach","ruin",5,1,81,1.616,38,0.95,0,0,1,0.908,NA,NA,NA,NA,"teach",0,2.284,3.91
"2380","port","cinema",9,1,80,2.245,37,0.925,0,1,0,1.041,NA,NA,NA,NA,"boat",0,2.809,3.631
"2380","need","faucet",33,1,57,1.646,15,0.375,1,1,1,1.447,NA,NA,NA,NA,"want",0,1.037,1.757
"2380","shrink","mafia",35,1,70,1.745,25,0.625,0,0,1,1.686,NA,NA,NA,NA,"tin",0,3.084,6.075
"2380","forest","knob",10,1,70,1.923,26,0.65,0,0,1,0.999,NA,NA,NA,NA,"goat",0,10.118,11.032
"2380","copy","bedroom",32,1,36,2.007,8,0.2,1,1,1,10.82,NA,NA,NA,NA,"goat",0,0.814,1.577
"2380","caring","skirt",12,1,40,4.749,9,0.225,1,1,1,5.149,NA,NA,NA,NA,"sharing",0,1.485,4.11
"2380","anger","decay",11,1,75,2.003,36,0.9,0,1,0,0.739,NA,NA,NA,NA,"goat",0,1.074,1.784
"2380","grip","beach",4,1,66,1.548,22,0.55,0,1,0,2.056,NA,NA,NA,NA,"sip",0,2.358,3.255
"2380","link","crisis",23,1,95,1.546,39,0.975,0,1,0,0.626,NA,NA,NA,NA,"past",0,21.199,22.033
"2380","collect","loyalty",17,1,61,2.38,18,0.45,1,1,1,0.738,NA,NA,NA,NA,"call",0,1.126,1.777
"2380","process","joker",38,1,71,1.811,28,0.7,0,0,1,1.559,NA,NA,NA,NA,"recess",0,1.228,2.699
"2380","bacon","feud",37,1,72,1.689,30,0.75,0,1,0,0.972,NA,NA,NA,NA,"mmm",0,1.35,2.006
"2380","replace","roach",18,1,58,2.034,17,0.425,1,0,0,1.072,NA,NA,NA,NA,"repaste",0,1.874,5.982
"2380","visit","glove",27,1,29,2.567,2,0.05,1,1,1,1.024,NA,NA,NA,NA,"grandma",0,1.554,3.008
"2399","risk","zero",10,1,2,34.018,30,0.75,1,0,0,2.713,NA,NA,NA,NA,"reward",0,17.312,23.505
"2399","pork","emperor",9,1,1,25.044,5,0.125,0,1,0,2.808,NA,NA,NA,NA,"sirloin",0,3.381,14.135
"2399","plant","worm",39,1,2,53.588,32,0.8,1,1,1,1.74,NA,NA,NA,NA,"milk",0,19.533,22.109
"2399","process","joker",7,1,1,15.477,8,0.2,0,1,0,2.923,NA,NA,NA,NA,"joker",1,21.261,23.74
"2399","need","faucet",18,1,2,55.449,29,0.725,1,0,0,8.831,NA,NA,NA,NA,"clown",0,24.195,27.299
"2399","bullet","walkway",21,1,1,9.199,27,0.675,1,1,1,1.197,NA,NA,NA,NA,"bumper",0,26.82,31.295
"2399","date","laugh",17,1,1,12.899,6,0.15,0,0,1,3.918,NA,NA,NA,NA,"laugh",1,19.024,21.085
"2399","forest","knob",4,1,1,18.221,4,0.1,0,1,0,10.729,NA,NA,NA,NA,"door",0,25.662,30.353
"2399","anger","decay",6,1,1,9.283,21,0.525,0,0,1,2.041,NA,NA,NA,NA,"rot",0,25.934,28.368
"2399","port","cinema",3,1,1,14.632,13,0.325,0,0,1,1.661,NA,NA,NA,NA,"wine",0,19.702,22.662
"2399","rock","milk",38,1,75,37.221,36,0.9,1,0,0,16.146,NA,NA,NA,NA,"milk",1,2.064,4.303
"2399","climax","saucer",16,1,1,12.064,22,0.55,0,0,1,1.582,NA,NA,NA,NA,"can",0,18.01,20.24
"2399","banner","glide",5,1,1,25.033,16,0.4,1,0,0,1.284,NA,NA,NA,NA,"bruce",0,12.783,14.902
"2399","shrink","mafia",25,1,99,29.626,39,0.975,1,1,1,1.661,NA,NA,NA,NA,"mafia",1,2.868,4.892
"2399","smother","surgery",8,1,85,34.139,37,0.925,1,1,1,3.224,NA,NA,NA,NA,"surgery",1,6.976,9.809
"2399","fan","feature",36,1,1,8.264,19,0.475,0,0,1,1.753,NA,NA,NA,NA,"fair",0,15.59,22.865
"2399","bleach","ruin",28,1,1,11.798,25,0.625,1,1,1,1.176,NA,NA,NA,NA,"socks",0,18.723,21.013
"2399","chicken","beet",26,1,5,34.533,33,0.825,1,0,0,4.394,NA,NA,NA,NA,"steak",0,6.421,10.819
"2399","want","ascent",24,1,90,12.797,38,0.95,1,1,1,1.545,NA,NA,NA,NA,"ascent",1,3.864,7.181
"2399","pea","bathtub",11,1,20,32.75,35,0.875,1,0,0,2.735,NA,NA,NA,NA,"pot",0,8.807,12.908
"2399","remind","foam",37,1,1,13.857,15,0.375,0,1,0,1.176,NA,NA,NA,NA,"loaf",0,41.724,44.936
"2399","fee","chowder",40,1,1,10.476,18,0.45,1,0,0,3.152,NA,NA,NA,NA,"feature",0,15.549,17.871
"2399","bias","sirloin",15,1,1,11.484,24,0.6,1,1,1,1.553,NA,NA,NA,NA,"loaf",0,11.014,26.99
"2399","prison","loaf",30,1,1,14.984,17,0.425,0,0,1,1.351,NA,NA,NA,NA,"loaf",1,3.711,6.392
"2399","link","crisis",2,1,1,10.291,20,0.5,0,0,1,1.251,NA,NA,NA,NA,"mafia",0,9.269,11.134
"2399","biology","temper",23,1,5,57.207,34,0.85,1,0,0,2.59,NA,NA,NA,NA,"rot",0,7.334,18.929
"2399","capital","figure",20,1,1,30.606,1,0.025,0,0,1,12.164,NA,NA,NA,NA,"figure",1,6.193,8.813
"2399","visit","glove",31,1,1,17.042,3,0.075,0,1,0,2.704,NA,NA,NA,NA,"van",0,20.693,22.405
"2399","glue","force",27,1,1,11.288,23,0.575,1,1,1,1.136,NA,NA,NA,NA,"stick",0,17.437,26.533
"2399","copy","bedroom",34,1,1,17.02,26,0.65,1,1,1,1.429,NA,NA,NA,NA,"paste",0,15.253,17.128
"2399","nerve","bumper",33,1,1,20.007,7,0.175,0,1,0,4.515,NA,NA,NA,NA,"bumper",1,2.913,4.843
"2399","mill","feast",14,1,1,18.549,9,0.225,0,1,0,2.389,NA,NA,NA,NA,"steak",0,11.756,20.041
"2399","replace","roach",13,1,1,10.455,12,0.3,0,0,1,1.731,NA,NA,NA,NA,"roach",1,75.813,84.362
"2399","find","clown",29,1,1,14.996,2,0.05,0,1,0,2.405,NA,NA,NA,NA,"clown",1,5.938,10.191
"2399","calf","annoy",35,1,1,25.203,14,0.35,0,1,0,1.809,NA,NA,NA,NA,"annoy",1,3.271,6.872
"2399","bacon","feud",19,1,100,17.977,40,1,1,0,0,3.875,NA,NA,NA,NA,"feud",1,2.774,5.834
"2399","caring","skirt",32,1,1,4.933,28,0.7,1,0,0,1.475,NA,NA,NA,NA,"cow",0,20.839,24.893
"2399","grip","beach",1,1,2,21.85,31,0.775,1,1,1,1.839,NA,NA,NA,NA,"pressure",0,10.735,14.804
"2399","knock","otter",22,1,1,17.624,11,0.275,0,0,1,1.282,NA,NA,NA,NA,"door",0,22.493,25.383
"2399","collect","loyalty",12,1,1,22.197,10,0.25,0,1,0,1.716,NA,NA,NA,NA,"coins",0,15.57,19.186
"2488","collect","loyalty",21,1,100,1.91,18,0.45,0,0,1,0.735,NA,NA,NA,NA,"loyalty",1,13.437,16.668
"2488","replace","roach",18,1,35,13.734,1,0.025,1,0,0,1.222,NA,NA,NA,NA,"roach",1,5.103,8.229
"2488","rock","milk",4,1,100,1.894,7,0.175,1,1,1,0.918,NA,NA,NA,NA,"milk",1,2.36,4.318
"2488","find","clown",40,1,100,4.452,4,0.1,1,1,1,3.374,NA,NA,NA,NA,"clown",1,3.553,6.471
"2488","chicken","beet",6,1,100,2.774,38,0.95,0,1,0,0.806,NA,NA,NA,NA,"beet",1,3.128,5.183
"2488","forest","knob",28,1,100,3.926,9,0.225,1,1,1,0.67,NA,NA,NA,NA,"knob",1,12.023,14.254
"2488","nerve","bumper",9,1,100,4.207,6,0.15,1,1,1,1.054,NA,NA,NA,NA,"bumper",1,12.448,15.431
"2488","link","crisis",16,1,100,6.398,19,0.475,0,0,1,0.869,NA,NA,NA,NA,"crisis",1,7.752,10.856
"2488","risk","zero",11,1,100,1.846,35,0.875,0,1,0,0.902,NA,NA,NA,NA,"zero",1,15.983,18.661
"2488","plant","worm",17,1,100,10.446,11,0.275,1,1,1,0.95,NA,NA,NA,NA,"worm",1,9.095,11.918
"2488","anger","decay",25,1,100,2.51,15,0.375,0,0,1,0.767,NA,NA,NA,NA,"decay",1,4.079,6.566
"2488","pea","bathtub",35,1,100,2.118,31,0.775,0,1,0,5.678,NA,NA,NA,NA,"bathtub",1,6.912,10.231
"2488","biology","temper",31,1,100,2.639,5,0.125,1,1,1,2.58,NA,NA,NA,NA,"temper",1,8.424,11.575
"2488","fee","chowder",3,1,100,25.206,17,0.425,0,0,1,0.989,NA,NA,NA,NA,"chowder",1,16.257,20.407
"2488","visit","glove",15,1,100,32.038,28,0.7,1,0,0,1.021,NA,NA,NA,NA,"glove",1,8.159,10.548
"2488","date","laugh",20,1,100,4.75,24,0.6,1,0,0,5.19,NA,NA,NA,NA,"laugh",1,11.232,14.862
"2488","prison","loaf",8,1,100,1.934,8,0.2,1,1,1,1.037,NA,NA,NA,NA,"loaf",1,9.007,11.599
"2488","capital","figure",10,1,100,2.245,16,0.4,0,0,1,1.895,NA,NA,NA,NA,"figure",1,16.159,19.549
"2488","bacon","feud",12,1,100,2.502,32,0.8,0,1,0,0.791,NA,NA,NA,NA,"feud",1,15.616,18.238
"2488","caring","skirt",14,1,100,3.117,22,0.55,0,0,1,0.845,NA,NA,NA,NA,"skirt",1,10.68,13.383
"2488","grip","beach",24,1,100,1.982,23,0.575,1,0,0,12.159,NA,NA,NA,NA,"beach",1,4.895,7.728
"2488","bleach","ruin",38,1,100,1.702,27,0.675,1,0,0,0.934,NA,NA,NA,NA,"ruin",1,8.663,11.31
"2488","smother","surgery",37,1,100,2.502,14,0.35,0,0,1,1.165,NA,NA,NA,NA,"surgery",1,5.276,9.051
"2488","port","cinema",33,1,100,7.908,3,0.075,1,1,1,14.629,NA,NA,NA,NA,"cinema",1,21.353,25.391
"2488","bias","sirloin",30,1,100,1.982,25,0.625,1,0,0,1.252,NA,NA,NA,NA,"sirloin",1,16.719,21.958
"2488","climax","saucer",7,1,100,2.254,10,0.25,1,1,1,0.926,NA,NA,NA,NA,"saucer",1,6.728,12.767
"2488","mill","feast",23,1,100,2.102,37,0.925,0,1,0,0.75,NA,NA,NA,NA,"feast",1,3.52,6.255
"2488","need","faucet",39,1,100,1.868,30,0.75,1,0,0,0.807,NA,NA,NA,NA,"faucet",1,17.857,24.463
"2488","process","joker",36,1,100,2.221,40,1,0,1,0,0.783,NA,NA,NA,NA,"joker",1,6.681,9.879
"2488","bullet","walkway",19,1,100,1.894,20,0.5,0,0,1,0.791,NA,NA,NA,NA,"walkway",1,3.896,9.296
"2488","copy","bedroom",29,1,100,2.209,39,0.975,0,1,0,0.779,NA,NA,NA,NA,"bedroom",1,17.093,20.229
"2488","shrink","mafia",26,1,100,1.91,21,0.525,0,0,1,0.808,NA,NA,NA,NA,"mafia",1,19.127,22.39
"2488","want","ascent",1,1,100,1.96,26,0.65,1,0,0,0.828,NA,NA,NA,NA,"ascent",1,5.007,8.318
"2488","glue","force",2,1,100,1.75,36,0.9,0,1,0,0.83,NA,NA,NA,NA,"force",1,3.44,5.99
"2488","remind","foam",34,1,60,17.181,2,0.05,1,0,0,1.206,NA,NA,NA,NA,"foam",1,10.321,12.887
"2488","calf","annoy",22,1,100,1.821,33,0.825,0,1,0,1.718,NA,NA,NA,NA,"annoy",1,12.168,15.159
"2488","fan","feature",13,1,100,2.462,29,0.725,1,0,0,0.912,NA,NA,NA,NA,"feature",1,3.263,6.511
"2488","banner","glide",5,1,100,2.612,12,0.3,1,1,1,0.822,NA,NA,NA,NA,"glide",1,39.888,42.503
"2488","pork","emperor",27,1,100,1.933,13,0.325,0,0,1,0.948,NA,NA,NA,NA,"emperor",1,2.927,6.422
"2488","knock","otter",32,1,100,2.477,34,0.85,0,1,0,0.791,NA,NA,NA,NA,"otter",1,14.32,16.654
"2495","visit","glove",14,1,38,9.585,20,0.5,1,0,0,2.151,NA,NA,NA,NA,"clover",0,16.647,21.042
"2495","pea","bathtub",9,1,63,3.232,31,0.775,1,1,1,0.957,NA,NA,NA,NA,"mattress",0,2.291,4.877
"2495","remind","foam",35,1,24,7.505,12,0.3,1,0,0,0.849,NA,NA,NA,NA,"remember",0,10.904,14.585
"2495","copy","bedroom",11,1,12,8.799,8,0.2,0,1,0,0.957,NA,NA,NA,NA,"paste",0,6.975,13.762
"2495","process","joker",4,1,4,9.86,2,0.05,0,1,0,1.381,NA,NA,NA,NA,"joke",0,8.475,13.178
"2495","shrink","mafia",6,1,53,4.579,25,0.625,0,0,1,1.018,NA,NA,NA,NA,"mafia",1,3.513,5.951
"2495","bullet","walkway",33,1,72,4.452,32,0.8,1,1,1,1.219,NA,NA,NA,NA,"walkway",1,4.799,8.074
"2495","port","cinema",19,1,59,4.067,29,0.725,0,0,1,0.842,NA,NA,NA,NA,"cinema",1,4.209,9.192
"2495","chicken","beet",3,1,95,4.184,38,0.95,1,1,1,1.134,NA,NA,NA,NA,"beets",0,2.007,3.777
"2495","link","crisis",16,1,26,8.353,14,0.35,1,0,0,0.848,NA,NA,NA,NA,"chain",0,6.384,7.716
"2495","biology","temper",12,1,35,9.279,16,0.4,0,0,1,3.355,NA,NA,NA,NA,"school",0,7.081,9.059
"2495","smother","surgery",24,1,83,4.407,36,0.9,1,1,1,10.991,NA,NA,NA,NA,"surgery",1,2.503,6.198
"2495","date","laugh",8,1,20,4.799,11,0.275,1,0,0,0.779,NA,NA,NA,NA,"beach",0,8.994,10.44
"2495","mill","feast",36,1,38,5.633,19,0.475,0,0,1,0.849,NA,NA,NA,NA,"feast",1,4.875,6.612
"2495","prison","loaf",27,1,90,5.519,37,0.925,1,1,1,10.938,NA,NA,NA,NA,"loaf",1,1.384,5.539
"2495","calf","annoy",29,1,61,7.082,30,0.75,0,0,1,0.887,NA,NA,NA,NA,"cow",0,9.221,10.617
"2495","bleach","ruin",38,1,99,3.465,39,0.975,1,1,1,0.831,NA,NA,NA,NA,"ruin",1,2.114,3.042
"2495","replace","roach",30,1,10,9.558,5,0.125,0,1,0,1.474,NA,NA,NA,NA,"roach",1,4.974,6.254
"2495","anger","decay",15,1,8,7.539,4,0.1,0,1,0,1.141,NA,NA,NA,NA,"fight",0,10.611,12.028
"2495","glue","force",1,1,54,5.03,27,0.675,0,0,1,0.834,NA,NA,NA,NA,"force",1,5.5,7.359
"2495","collect","loyalty",5,1,75,7.981,33,0.825,1,1,1,0.801,NA,NA,NA,NA,"loyalty",1,1.77,4.107
"2495","fan","feature",26,1,41,7.489,23,0.575,1,0,0,1.174,NA,NA,NA,NA,"feature",1,2.833,4.619
"2495","climax","saucer",39,1,36,3.619,17,0.425,0,0,1,0.809,NA,NA,NA,NA,"top",0,8.406,8.981
"2495","plant","worm",17,1,99,6.059,40,1,1,1,1,1.573,NA,NA,NA,NA,"worm",1,1.684,3.1
"2495","rock","milk",20,1,44,4.199,24,0.6,0,0,1,0.879,NA,NA,NA,NA,"milk",1,1.352,2.241
"2495","capital","figure",7,1,39,6.159,21,0.525,1,0,0,0.979,NA,NA,NA,NA,"center",0,4.461,8.456
"2495","find","clown",23,1,79,6.02,35,0.875,1,1,1,0.825,NA,NA,NA,NA,"clown",1,4.406,6.618
"2495","need","faucet",28,1,15,7.285,10,0.25,0,1,0,1.057,NA,NA,NA,NA,"want",0,1.832,2.977
"2495","want","ascent",18,1,7,9.62,3,0.075,0,1,0,1.217,NA,NA,NA,NA,"have",0,6.164,9.042
"2495","banner","glide",31,1,41,5.595,22,0.55,1,0,0,0.762,NA,NA,NA,NA,"flag",0,2.067,4.257
"2495","caring","skirt",32,1,11,6.526,7,0.175,0,1,0,0.879,NA,NA,NA,NA,"person",0,6.576,8.421
"2495","nerve","bumper",2,1,11,5.773,6,0.15,0,1,0,1.027,NA,NA,NA,NA,"help",0,13.204,14.174
"2495","forest","knob",22,1,25,8.839,13,0.325,1,0,0,0.767,NA,NA,NA,NA,"trees",0,6.567,7.988
"2495","bacon","feud",34,1,32,9.35,15,0.375,1,0,0,1.041,NA,NA,NA,NA,"eggs",0,1.859,4.293
"2495","fee","chowder",37,1,54,6.968,26,0.65,0,0,1,0.91,NA,NA,NA,NA,"charge",0,8.323,10.052
"2495","pork","emperor",10,1,37,8.579,18,0.45,1,0,0,1.158,NA,NA,NA,NA,"cow",0,10.274,13.563
"2495","bias","sirloin",21,1,2,11.484,1,0.025,0,1,0,11.986,NA,NA,NA,NA,"sirloin",1,5.987,8.011
"2495","grip","beach",40,1,55,4.353,28,0.7,0,0,1,0.817,NA,NA,NA,NA,"hold",0,6.157,7.321
"2495","risk","zero",13,1,79,6.222,34,0.85,1,1,1,0.787,NA,NA,NA,NA,"zero",1,1.639,2.801
"2495","knock","otter",25,1,13,5.712,9,0.225,0,1,0,0.84,NA,NA,NA,NA,"door",0,9.996,11.752
"2496","replace","roach",22,1,77,1.452,40,1,0,0,1,0.597,NA,NA,NA,NA,"annoy",0,23.745,26.422
"2496","knock","otter",9,1,26,1.618,12,0.3,1,0,0,0.58,NA,NA,NA,NA,"platter",0,3.731,4.824
"2496","mill","feast",4,1,35,1.33,22,0.55,0,1,0,0.74,NA,NA,NA,NA,"cheese",0,2.366,3.829
"2496","shrink","mafia",1,1,67,1.449,28,0.7,0,1,0,0.525,NA,NA,NA,NA,"bathroom",0,1.203,4.997
"2496","copy","bedroom",26,1,70,1.735,31,0.775,0,0,1,0.557,NA,NA,NA,NA,"bedroom",1,3.124,4.316
"2496","nerve","bumper",39,1,24,1.053,8,0.2,1,1,1,0.494,NA,NA,NA,NA,"skip",0,2.627,3.596
"2496","fee","chowder",38,1,67,1.449,29,0.725,0,0,1,0.494,NA,NA,NA,NA,"annoy",0,3.72,4.728
"2496","pea","bathtub",17,1,75,1.136,37,0.925,0,0,1,0.776,NA,NA,NA,NA,"knock",0,2.129,3.452
"2496","glue","force",8,1,28,1.224,13,0.325,1,1,1,0.718,NA,NA,NA,NA,"save",0,7.465,9.909
"2496","date","laugh",11,1,22,3.766,6,0.15,1,1,1,10.996,NA,NA,NA,NA,"danger",0,4.932,5.923
"2496","need","faucet",34,1,28,1.222,14,0.35,1,1,1,0.844,NA,NA,NA,NA,"rehab",0,1.978,2.834
"2496","remind","foam",21,1,71,1.606,33,0.825,0,0,1,0.563,NA,NA,NA,NA,"carwash",0,4.489,6.074
"2496","collect","loyalty",35,1,35,1.501,23,0.575,1,1,1,1.942,NA,NA,NA,NA,"keys",0,2.649,3.876
"2496","link","crisis",6,1,20,1.713,5,0.125,1,0,0,0.577,NA,NA,NA,NA,"stutter",0,4.545,8.615
"2496","process","joker",30,1,30,1.346,15,0.375,0,1,0,0.578,NA,NA,NA,NA,"fine",0,2.384,6.329
"2496","chicken","beet",18,1,70,1.332,32,0.8,0,1,0,0.463,NA,NA,NA,NA,"mill",0,2.308,4.253
"2496","plant","worm",28,1,26,1.378,11,0.275,1,0,0,0.674,NA,NA,NA,NA,"leaf",0,2.126,3.157
"2496","bleach","ruin",20,1,34,1.378,19,0.475,0,1,0,0.652,NA,NA,NA,NA,"depressed",0,3.547,5.044
"2496","find","clown",13,1,15,1.371,3,0.075,1,0,0,0.541,NA,NA,NA,NA,"column",0,3.902,5.282
"2496","pork","emperor",5,1,77,4.694,39,0.975,0,0,1,0.733,NA,NA,NA,NA,"belly",0,1.689,2.63
"2496","biology","temper",15,1,58,1.425,24,0.6,1,1,1,0.705,NA,NA,NA,NA,"green",0,1.305,2.436
"2496","bias","sirloin",12,1,63,1.462,26,0.65,1,1,1,0.471,NA,NA,NA,NA,"dynamic",0,4.375,6.217
"2496","visit","glove",40,1,71,3.062,34,0.85,0,0,1,0.616,NA,NA,NA,NA,"shotgun",0,2.167,3.179
"2496","prison","loaf",33,1,33,1.525,18,0.45,0,1,0,0.657,NA,NA,NA,NA,"bars",0,2.189,2.988
"2496","banner","glide",10,1,63,1.432,25,0.625,0,1,0,0.765,NA,NA,NA,NA,"wander",0,4.712,5.886
"2496","calf","annoy",32,1,30,1.41,16,0.4,0,1,0,0.51,NA,NA,NA,NA,"corn",0,1.561,2.256
"2496","smother","surgery",23,1,35,1.732,21,0.525,1,1,1,7.68,NA,NA,NA,NA,"pillow",0,1.841,2.946
"2496","risk","zero",19,1,14,2.424,2,0.05,1,0,0,0.532,NA,NA,NA,NA,"adventure",0,2.174,7.347
"2496","want","ascent",16,1,11,1.56,1,0.025,1,0,0,0.706,NA,NA,NA,NA,"need",0,2.279,2.993
"2496","caring","skirt",29,1,73,1.232,36,0.9,0,0,1,0.472,NA,NA,NA,NA,"mother",0,1.496,2.261
"2496","forest","knob",7,1,26,1.392,10,0.25,1,0,0,0.441,NA,NA,NA,NA,"green",0,1.043,1.924
"2496","rock","milk",3,1,76,1.688,38,0.95,0,0,1,1.186,NA,NA,NA,NA,"mill",0,3.352,4.397
"2496","bullet","walkway",14,1,34,1.339,20,0.5,0,1,0,0.649,NA,NA,NA,NA,"weapon",0,3.475,5.011
"2496","bacon","feud",31,1,69,2.091,30,0.75,0,0,1,1.03,NA,NA,NA,NA,"greasy",0,3.551,4.761
"2496","port","cinema",37,1,23,1.926,7,0.175,1,0,0,0.5,NA,NA,NA,NA,"wine",0,1.204,1.835
"2496","anger","decay",27,1,25,1.797,9,0.225,1,0,0,0.449,NA,NA,NA,NA,"annoy",0,5.041,6.954
"2496","climax","saucer",25,1,72,2.495,35,0.875,0,1,0,0.503,NA,NA,NA,NA,"orgasm",0,1.578,2.64
"2496","capital","figure",2,1,17,1.673,4,0.1,1,0,0,0.65,NA,NA,NA,NA,"town",0,1.506,7.312
"2496","fan","feature",36,1,33,1.95,17,0.425,1,1,1,0.471,NA,NA,NA,NA,"blade",0,2.984,4.589
"2496","grip","beach",24,1,65,2.087,27,0.675,1,1,1,1.603,NA,NA,NA,NA,"rock",0,1.399,2.819
"2503","caring","skirt",20,1,68,2.222,35,0.875,1,0,0,0.831,NA,NA,NA,NA,"skill",0,1.871,3.062
"2503","banner","glide",26,1,44,2.009,16,0.4,0,1,0,1.073,NA,NA,NA,NA,"flag",0,7.382,7.996
"2503","remind","foam",15,1,32,5.913,8,0.2,0,0,1,3.96,NA,NA,NA,NA,"water",0,2.459,3.127
"2503","bleach","ruin",28,1,67,2.096,33,0.825,1,1,1,0.784,NA,NA,NA,NA,"clean",0,1.985,2.671
"2503","capital","figure",8,1,43,3.129,15,0.375,0,1,0,0.715,NA,NA,NA,NA,"case",0,1.736,2.407
"2503","prison","loaf",32,1,55,1.905,22,0.55,0,1,0,2.059,NA,NA,NA,NA,"cell",0,1.336,2.551
"2503","bacon","feud",24,1,43,2.888,14,0.35,1,1,1,1.24,NA,NA,NA,NA,"emperor",0,1.898,3.903
"2503","risk","zero",40,1,31,1.681,7,0.175,0,1,0,0.916,NA,NA,NA,NA,"arrive",0,1.768,3.431
"2503","find","clown",1,1,34,2.214,9,0.225,0,0,1,0.673,NA,NA,NA,NA,"truce",0,1.441,2.735
"2503","pork","emperor",10,1,30,2.923,5,0.125,0,0,1,3.603,NA,NA,NA,NA,"emperor",1,2.665,5.239
"2503","pea","bathtub",30,1,26,1.898,4,0.1,0,1,0,0.744,NA,NA,NA,NA,"sweet",0,1.801,5.175
"2503","bias","sirloin",14,1,51,2.887,19,0.475,0,1,0,0.709,NA,NA,NA,NA,"well",0,1.889,2.447
"2503","fan","feature",29,1,73,3.681,38,0.95,1,0,0,2.467,NA,NA,NA,NA,"fast",0,2.617,3.199
"2503","plant","worm",34,1,62,2.091,27,0.675,1,0,0,1.241,NA,NA,NA,NA,"soil",0,1.425,5.543
