"subn","word1","word2","jol","jolrt","trial","list","practice","jolrank","jolrankp","restudyresp","restudyacc","restudyrtfirst","restudyrt","response","testacc","rtfirst","rt"
"1256","copy","bedroom",1,1.102,13,1,1,4,0.1,NA,NA,NA,NA,"joker",0,8.783,9.638
"1256","grip","beach",1,1.883,30,1,0,19,0.475,NA,NA,NA,NA,"force",0,4.56,6.2
"1256","bias","sirloin",1,0.926,17,1,0,15,0.375,NA,NA,NA,NA,"sirloin",1,6.111,7.606
"1256","calf","annoy",12,1.434,1,1,1,22,0.55,NA,NA,NA,NA,"annoy",1,4.426,5.736
"1256","plant","worm",100,1.563,8,1,0,39,0.975,NA,NA,NA,NA,"otter",0,3.912,5.032
"1256","climax","saucer",25,5.053,21,1,1,26,0.65,NA,NA,NA,NA,"clown",0,4.487,5.439
"1256","pea","bathtub",1,1.089,26,1,1,8,0.2,NA,NA,NA,NA,"ascent",0,5.824,7.296
"1256","anger","decay",1,2.705,33,1,0,7,0.175,NA,NA,NA,NA,"saucer",0,4.775,5.767
"1256","biology","temper",36,2.202,31,1,0,29,0.725,NA,NA,NA,NA,"bedroom",0,3.937,6.872
"1256","bullet","walkway",1,1.387,39,1,1,12,0.3,NA,NA,NA,NA,"feast",0,5.08,5.992
"1256","shrink","mafia",1,1.68,12,1,0,13,0.325,NA,NA,NA,NA,"bumper ",0,5.342,7.206
"1256","fan","feature",67,2.317,22,1,0,37,0.925,NA,NA,NA,NA,"walkway",0,8.399,10.159
"1256","want","ascent",1,9.633,35,1,1,2,0.05,NA,NA,NA,NA,"ascent",1,5.121,6.736
"1256","glue","force",1,1.137,2,1,1,18,0.45,NA,NA,NA,NA,"emperor",0,3.96,5.151
"1256","nerve","bumper",1,0.891,18,1,1,10,0.25,NA,NA,NA,NA,"bathtub",0,5.288,6.424
"1256","find","clown",1,5.882,5,1,0,1,0.025,NA,NA,NA,NA,"worm",0,4.272,5.056
"1256","link","crisis",1,1.015,34,1,0,11,0.275,NA,NA,NA,NA,"skirt",0,4.305,9.695
"1256","pork","emperor",24,1.237,16,1,0,25,0.625,NA,NA,NA,NA,"surgery",0,5.136,6.471
"1256","caring","skirt",1,1.285,38,1,1,20,0.5,NA,NA,NA,NA,"temper",0,4.425,7.127
"1256","visit","glove",1,1.381,25,1,0,3,0.075,NA,NA,NA,NA,"figure",0,3.944,5.335
"1256","bleach","ruin",37,1.612,19,1,1,30,0.75,NA,NA,NA,NA,"worm",0,3.657,5.376
"1256","need","faucet",26,1.693,29,1,0,27,0.675,NA,NA,NA,NA,"faucet",1,5.271,7.175
"1256","banner","glide",1,2.138,7,1,0,21,0.525,NA,NA,NA,NA,"glide",1,5.104,7.864
"1256","smother","surgery",1,1.015,15,1,0,17,0.425,NA,NA,NA,NA,"clown",0,9.536,13.121
"1256","collect","loyalty",1,1.22,11,1,1,16,0.4,NA,NA,NA,NA,"loyalty",1,4.56,6.087
"1256","mill","feast",64,2.129,14,1,0,35,0.875,NA,NA,NA,NA,"decay",0,7.384,8.759
"1256","fee","chowder",46,1.487,3,1,1,32,0.8,NA,NA,NA,NA,"chowder",1,3.56,4.888
"1256","replace","roach",30,8.004,24,1,1,28,0.7,NA,NA,NA,NA,"crisis",0,6.583,7.847
"1256","process","joker",1,1.383,37,1,1,14,0.35,NA,NA,NA,NA,"walkway",0,4.872,6.591
"1256","forest","knob",47,9.712,6,1,0,33,0.825,NA,NA,NA,NA,"knob",1,6.224,7.279
"1256","bacon","feud",1,10.083,4,1,0,9,0.225,NA,NA,NA,NA,"ruin",0,6.183,7.152
"1256","prison","loaf",1,1.354,10,1,1,6,0.15,NA,NA,NA,NA,"loaf",1,4.711,5.511
"1256","capital","figure",66,3.144,28,1,1,36,0.9,NA,NA,NA,NA,"mafia",0,6.619,7.419
"1256","port","cinema",57,3.253,23,1,1,34,0.85,NA,NA,NA,NA,"cinema",1,4.569,6.36
"1256","remind","foam",1,1.241,27,1,0,5,0.125,NA,NA,NA,NA,"foam",1,5.391,6.319
"1256","risk","zero",100,1.712,9,1,1,38,0.95,NA,NA,NA,NA,"zero",1,3.132,4.008
"1256","date","laugh",19,1.449,20,1,0,23,0.575,NA,NA,NA,NA,"laugh",1,9.912,10.367
"1256","chicken","beet",100,1.507,36,1,1,40,1,NA,NA,NA,NA,"beet",1,3.912,4.164
"1256","knock","otter",23,1.552,40,1,1,24,0.6,NA,NA,NA,NA,"otter",1,7.556,7.804
"1256","rock","milk",37,2.575,32,1,0,31,0.775,NA,NA,NA,NA,"milk",1,8.121,8.369
"1277","climax","saucer",57,3.557,34,1,0,26,0.65,NA,NA,NA,NA,"saucer",1,7.53,10.382
"1277","mill","feast",19,4.684,22,1,1,15,0.375,NA,NA,NA,NA,"SKIP",0,4.013,6.78
"1277","need","faucet",19,11.55,17,1,0,16,0.4,NA,NA,NA,NA,"faucet",1,2.637,5.533
"1277","capital","figure",38,4.709,9,1,0,20,0.5,NA,NA,NA,NA,"function",0,12.172,15.695
"1277","calf","annoy",35,3.221,8,1,1,19,0.475,NA,NA,NA,NA,"annoy",1,1.314,3.879
"1277","replace","roach",1,2.701,6,1,0,4,0.1,NA,NA,NA,NA,"SKIP",0,4.977,7.671
"1277","fee","chowder",1,2.78,13,1,1,3,0.075,NA,NA,NA,NA,"SKIP",0,5.779,9.8
"1277","risk","zero",66,6.053,24,1,1,33,0.825,NA,NA,NA,NA,"zero",1,3.965,6.327
"1277","link","crisis",6,4.35,25,1,0,14,0.35,NA,NA,NA,NA,"SKIP",0,8.794,13.021
"1277","anger","decay",3,4.557,30,1,0,10,0.25,NA,NA,NA,NA,"SKIP",0,12.04,14.903
"1277","visit","glove",1,3.574,4,1,0,2,0.05,NA,NA,NA,NA,"SKIP",0,2.671,5.382
"1277","want","ascent",1,2.31,35,1,0,8,0.2,NA,NA,NA,NA,"faucet",0,7.295,10.079
"1277","forest","knob",1,3.39,21,1,1,7,0.175,NA,NA,NA,NA,"grip",0,1.831,3.782
"1277","pork","emperor",5,3.414,5,1,0,12,0.3,NA,NA,NA,NA,"emperor",1,1.959,4.494
"1277","knock","otter",27,7.281,19,1,1,17,0.425,NA,NA,NA,NA,"SKIP",0,3.065,5.566
"1277","process","joker",1,7.07,33,1,1,1,0.025,NA,NA,NA,NA,"SKIP",0,3.532,6.078
"1277","remind","foam",1,2.054,31,1,0,6,0.15,NA,NA,NA,NA,"SKIP",0,2.609,5.326
"1277","shrink","mafia",57,4.301,39,1,0,24,0.6,NA,NA,NA,NA,"bedroom",0,4.224,7.319
"1277","smother","surgery",57,2.502,11,1,1,25,0.625,NA,NA,NA,NA,"surgery",1,1.264,4.223
"1277","grip","beach",5,5.398,2,1,1,13,0.325,NA,NA,NA,NA,"force",0,1.568,3.815
"1277","date","laugh",59,4.71,12,1,1,29,0.725,NA,NA,NA,NA,"laugh",1,2.028,5.469
"1277","glue","force",71,2.59,40,1,1,35,0.875,NA,NA,NA,NA,"force",1,1.253,3.742
"1277","bias","sirloin",66,2.356,37,1,0,34,0.85,NA,NA,NA,NA,"sirloin",1,6.189,9.262
"1277","prison","loaf",1,2.447,29,1,1,9,0.225,NA,NA,NA,NA,"SKIP",0,3.925,9.471
"1277","find","clown",1,2.678,1,1,1,5,0.125,NA,NA,NA,NA,"SKIP",0,4.137,7.511
"1277","caring","skirt",4,8.865,14,1,1,11,0.275,NA,NA,NA,NA,"SKIP",0,2.644,5.533
"1277","collect","loyalty",55,3.669,28,1,1,23,0.575,NA,NA,NA,NA,"loyalty",1,2.427,4.949
"1277","biology","temper",34,6.237,38,1,0,18,0.45,NA,NA,NA,NA,"SKIP",0,4.598,7.039
"1277","copy","bedroom",58,3.848,23,1,1,27,0.675,NA,NA,NA,NA,"bedroom",1,3.79,6.303
"1277","bleach","ruin",96,3.189,16,1,0,40,1,NA,NA,NA,NA,"ruin",1,1.324,3.556
"1277","bullet","walkway",65,2.647,3,1,0,32,0.8,NA,NA,NA,NA,"walkway",1,2.66,6.198
"1277","bacon","feud",84,2.903,26,1,0,38,0.95,NA,NA,NA,NA,"feud",1,1.201,12.846
"1277","fan","feature",45,4.141,32,1,0,22,0.55,NA,NA,NA,NA,"feature",1,2.069,4.879
"1277","rock","milk",83,2.853,36,1,1,37,0.925,NA,NA,NA,NA,"milk",1,1.509,3.727
"1277","chicken","beet",73,2.566,27,1,0,36,0.9,NA,NA,NA,NA,"beet",1,2.752,4.743
"1277","port","cinema",58,5.381,15,1,0,28,0.7,NA,NA,NA,NA,"cinema",1,2.69,5.808
"1277","nerve","bumper",41,5.798,18,1,1,21,0.525,NA,NA,NA,NA,"bumper",1,1.704,4.269
"1277","plant","worm",64,3.277,7,1,1,31,0.775,NA,NA,NA,NA,"worm",1,1.2,3.357
"1277","pea","bathtub",87,3.644,20,1,1,39,0.975,NA,NA,NA,NA,"bathtub",1,2.07,5.014
"1277","banner","glide",63,2.27,10,1,0,30,0.75,NA,NA,NA,NA,"glide",1,4.469,6.63
"1332","anger","decay",11,5.292,6,1,0,5,0.125,NA,NA,NA,NA,"decay",1,1.874,3.175
"1332","bleach","ruin",11,3.184,20,1,1,6,0.15,NA,NA,NA,NA,"skip",0,4.957,7.541
"1332","climax","saucer",76,2.667,29,1,1,20,0.5,NA,NA,NA,NA,"saucer",1,1.264,2.32
"1332","need","faucet",1,3.198,31,1,0,1,0.025,NA,NA,NA,NA,"foam",0,4.888,13.552
"1332","mill","feast",90,2.487,26,1,0,33,0.825,NA,NA,NA,NA,"feast",1,1.063,1.943
"1332","replace","roach",78,3.863,12,1,0,21,0.525,NA,NA,NA,NA,"foam",0,10.995,11.896
"1332","smother","surgery",80,4.32,40,1,1,22,0.55,NA,NA,NA,NA,"surgery",1,1.568,2.705
"1332","date","laugh",91,2.165,28,1,1,34,0.85,NA,NA,NA,NA,"laugh",1,0.973,1.669
"1332","banner","glide",73,2.233,36,1,1,18,0.45,NA,NA,NA,NA,"glide",1,0.907,1.593
"1332","fan","feature",27,3.918,9,1,0,9,0.225,NA,NA,NA,NA,"feature",1,1.134,2.413
"1332","risk","zero",100,2.516,39,1,1,40,1,NA,NA,NA,NA,"zero",1,1.987,3.624
"1332","biology","temper",88,3.023,18,1,1,30,0.75,NA,NA,NA,NA,"temper",1,1.216,2.016
"1332","forest","knob",81,2.412,25,1,1,24,0.6,NA,NA,NA,NA,"knob",1,1.293,2.03
"1332","nerve","bumper",36,3.954,34,1,0,11,0.275,NA,NA,NA,NA,"skip",0,7.478,8.416
"1332","pork","emperor",93,2.324,4,1,0,39,0.975,NA,NA,NA,NA,"emperor",1,1.494,2.58
"1332","grip","beach",89,2.589,37,1,0,31,0.775,NA,NA,NA,NA,"beach",1,1.744,2.375
"1332","port","cinema",92,4.734,30,1,1,36,0.9,NA,NA,NA,NA,"cinema",1,1.225,2.078
"1332","bacon","feud",92,2.217,14,1,0,35,0.875,NA,NA,NA,NA,"feud",1,2.035,2.884
"1332","glue","force",81,2.916,33,1,0,25,0.625,NA,NA,NA,NA,"force",1,1.043,1.877
"1332","caring","skirt",32,8.446,3,1,1,10,0.25,NA,NA,NA,NA,"skip",0,1.134,1.829
"1332","prison","loaf",81,4.044,10,1,0,23,0.575,NA,NA,NA,NA,"loaf",1,1.093,1.861
"1332","copy","bedroom",73,2.202,11,1,0,19,0.475,NA,NA,NA,NA,"bedroom",1,1.785,6.65
"1332","plant","worm",92,2.276,1,1,1,38,0.95,NA,NA,NA,NA,"worm",1,0.957,1.957
"1332","capital","figure",15,3.461,7,1,1,8,0.2,NA,NA,NA,NA,"skip",0,1.44,2.623
"1332","want","ascent",61,4.758,32,1,0,15,0.375,NA,NA,NA,NA,"ascent",1,3.433,6.593
"1332","remind","foam",6,3.257,15,1,0,3,0.075,NA,NA,NA,NA,"skip",0,2.806,3.613
"1332","process","joker",5,5.293,21,1,1,2,0.05,NA,NA,NA,NA,"skip",0,1.033,1.864
"1332","rock","milk",66,4.197,24,1,0,17,0.425,NA,NA,NA,NA,"skip",0,6.146,6.84
"1332","bias","sirloin",87,3.659,23,1,0,29,0.725,NA,NA,NA,NA,"skip",0,21.984,23.04
"1332","link","crisis",90,2.828,2,1,1,32,0.8,NA,NA,NA,NA,"crisis",1,1.297,2.495
"1332","bullet","walkway",85,3.134,35,1,1,26,0.65,NA,NA,NA,NA,"walkway",1,1.176,2.296
"1332","chicken","beet",64,2.651,27,1,1,16,0.4,NA,NA,NA,NA,"beet",1,0.922,1.663
"1332","visit","glove",85,2.475,22,1,0,27,0.675,NA,NA,NA,NA,"glove",1,1.738,3.504
"1332","knock","otter",8,9.836,19,1,1,4,0.1,NA,NA,NA,NA,"skip",0,1.243,1.84
"1332","pea","bathtub",86,3.036,38,1,1,28,0.7,NA,NA,NA,NA,"bathroom",0,1.208,3.303
"1332","find","clown",92,2.943,13,1,0,37,0.925,NA,NA,NA,NA,"skip",0,5.547,7.656
"1332","fee","chowder",40,15.878,16,1,0,13,0.325,NA,NA,NA,NA,"chowder",1,2.441,3.44
"1332","collect","loyalty",14,5.922,17,1,0,7,0.175,NA,NA,NA,NA,"skip",0,1.042,2.328
"1332","shrink","mafia",38,3.853,8,1,1,12,0.3,NA,NA,NA,NA,"skip",0,2.553,7.015
"1332","calf","annoy",61,2.505,5,1,1,14,0.35,NA,NA,NA,NA,"annoy",1,0.898,1.783
"1398","link","crisis",73,1.636,39,1,0,35,0.875,NA,NA,NA,NA,"crisis ",0,17.127,20.092
"1398","shrink","mafia",66,1.86,36,1,1,22,0.55,NA,NA,NA,NA,"mafia",1,12.872,15.241
"1398","date","laugh",68,2.845,3,1,0,25,0.625,NA,NA,NA,NA,"skip",0,6.581,8.624
"1398","risk","zero",28,1.677,34,1,1,4,0.1,NA,NA,NA,NA,"skip",0,16.365,21.074
"1398","replace","roach",26,2.078,33,1,1,2,0.05,NA,NA,NA,NA,"skip",0,4.466,6.711
"1398","fee","chowder",33,1.564,20,1,0,7,0.175,NA,NA,NA,NA,"CHOWDER",0,42.449,45.42
"1398","pork","emperor",67,1.845,19,1,0,23,0.575,NA,NA,NA,NA,"EMPEROR",0,16.227,19.39
"1398","rock","milk",59,1.752,10,1,1,18,0.45,NA,NA,NA,NA,"MILK",0,3.447,5.87
"1398","want","ascent",65,1.883,17,1,0,21,0.525,NA,NA,NA,NA,"ASCENT",0,8.194,12.276
"1398","glue","force",71,2.389,37,1,0,33,0.825,NA,NA,NA,NA,"GORILLA",0,9.317,12.44
"1398","mill","feast",60,9.045,32,1,0,19,0.475,NA,NA,NA,NA,"FEAST",0,4.633,7.221
"1398","copy","bedroom",64,1.652,38,1,1,20,0.5,NA,NA,NA,NA,"SKIP",0,3.013,6.118
"1398","visit","glove",30,1.773,23,1,0,5,0.125,NA,NA,NA,NA,"GLOVE",0,3.481,5.397
"1398","bleach","ruin",57,1.882,5,1,0,15,0.375,NA,NA,NA,NA,"RUIN",0,4.338,6.391
"1398","grip","beach",34,1.541,1,1,0,9,0.225,NA,NA,NA,NA,"BEACH",0,4.149,6.413
"1398","port","cinema",69,1.973,35,1,1,28,0.7,NA,NA,NA,NA,"CINEMA",0,5.639,7.962
"1398","collect","loyalty",58,1.687,12,1,0,17,0.425,NA,NA,NA,NA,"SKIP",0,2.469,4.513
"1398","prison","loaf",35,1.565,30,1,1,10,0.25,NA,NA,NA,NA,"LOAF",0,16.039,19.519
"1398","knock","otter",70,1.916,7,1,0,31,0.775,NA,NA,NA,NA,"SKIP",0,4.642,8.188
"1398","need","faucet",32,1.717,22,1,1,6,0.15,NA,NA,NA,NA,"FAUCET ",0,21.96,24.948
"1398","biology","temper",77,1.644,6,1,0,39,0.975,NA,NA,NA,NA,"SKIP",0,2.221,4.888
"1398","climax","saucer",76,2.403,24,1,1,38,0.95,NA,NA,NA,NA,"SAUCER",0,10.043,12.405
"1398","caring","skirt",58,1.749,29,1,1,16,0.4,NA,NA,NA,NA,"SKIP",0,1.872,3.732
"1398","anger","decay",70,1.885,18,1,1,32,0.8,NA,NA,NA,NA,"SKIRT",0,3.726,6.039
"1398","bullet","walkway",33,1.453,40,1,1,8,0.2,NA,NA,NA,NA,"WALKWAY",0,2.132,4.851
"1398","pea","bathtub",69,1.693,11,1,0,27,0.675,NA,NA,NA,NA,"SKIP",0,4.237,6.79
"1398","forest","knob",69,1.669,31,1,0,29,0.725,NA,NA,NA,NA,"KNOB",0,26.221,28.295
"1398","bias","sirloin",36,1.733,8,1,0,11,0.275,NA,NA,NA,NA,"SKIP",0,1.753,4.228
"1398","find","clown",72,1.772,9,1,1,34,0.85,NA,NA,NA,NA,"CLOWN",0,29.216,31.407
"1398","remind","foam",27,2.51,4,1,0,3,0.075,NA,NA,NA,NA,"REPLACE",0,3.06,5.431
"1398","calf","annoy",68,2.035,13,1,1,24,0.6,NA,NA,NA,NA,"SKIP",0,2.178,4.323
"1398","plant","worm",46,1.859,15,1,0,13,0.325,NA,NA,NA,NA,"WORM",0,2.675,12.802
"1398","capital","figure",73,2.092,27,1,1,36,0.9,NA,NA,NA,NA,"FIGURE",0,5.961,8.021
"1398","nerve","bumper",75,1.693,21,1,0,37,0.925,NA,NA,NA,NA,"SKIP",0,1.124,3.151
"1398","smother","surgery",43,1.957,26,1,1,12,0.3,NA,NA,NA,NA,"FORCE",0,3.999,6.061
"1398","fan","feature",81,1.669,28,1,1,40,1,NA,NA,NA,NA,"SKIP",0,2.429,4.516
"1398","chicken","beet",57,1.893,25,1,1,14,0.35,NA,NA,NA,NA,"SKIP",0,1.271,4.133
"1398","banner","glide",69,1.573,16,1,1,30,0.75,NA,NA,NA,NA,"SKIP",0,6.896,9.013
"1398","bacon","feud",69,1.923,2,1,1,26,0.65,NA,NA,NA,NA,"SKIP",0,1.984,4.822
"1398","process","joker",25,1.5,14,1,0,1,0.025,NA,NA,NA,NA,"BUMPER",0,8.716,10.972
"1428","want","ascent",1,16.274,32,1,1,4,0.1,NA,NA,NA,NA,"skip",0,1.748,3.188
"1428","calf","annoy",34,5.662,34,1,0,23,0.575,NA,NA,NA,NA,"annoy",1,2.748,4.724
"1428","glue","force",54,5.042,12,1,0,27,0.675,NA,NA,NA,NA,"skip",0,1.595,4.87
"1428","nerve","bumper",1,4.689,10,1,1,2,0.05,NA,NA,NA,NA,"skip",0,1.244,2.793
"1428","fee","chowder",19,5.192,4,1,1,18,0.45,NA,NA,NA,NA,"chowder",1,1.97,4.384
"1428","date","laugh",65,9.737,27,1,0,31,0.775,NA,NA,NA,NA,"laugh",1,1.763,9.766
"1428","risk","zero",90,7.607,20,1,1,40,1,NA,NA,NA,NA,"zero",1,1.723,3.052
"1428","need","faucet",1,2.203,38,1,1,10,0.25,NA,NA,NA,NA,"skip",0,1.39,3.381
"1428","find","clown",3,14.091,5,1,1,14,0.35,NA,NA,NA,NA,"skip",0,1.471,5.003
"1428","knock","otter",58,2.518,37,1,0,29,0.725,NA,NA,NA,NA,"otter",1,8.113,9.336
"1428","mill","feast",10,8.98,29,1,1,16,0.4,NA,NA,NA,NA,"feast",1,1.987,3.449
"1428","plant","worm",31,4.736,33,1,1,22,0.55,NA,NA,NA,NA,"worm",1,2.357,3.758
"1428","copy","bedroom",72,2.901,28,1,0,35,0.875,NA,NA,NA,NA,"bedroom",1,1.604,5.624
"1428","bleach","ruin",74,4.626,40,1,1,36,0.9,NA,NA,NA,NA,"ruin",1,1.794,3.224
"1428","caring","skirt",39,7.567,2,1,0,25,0.625,NA,NA,NA,NA,"skip",0,10.642,12.021
"1428","rock","milk",1,5.135,19,1,0,3,0.075,NA,NA,NA,NA,"milk",1,2.608,3.935
"1428","replace","roach",67,3.614,39,1,0,33,0.825,NA,NA,NA,NA,"roach",1,1.435,3.178
"1428","bacon","feud",1,32.446,26,1,0,11,0.275,NA,NA,NA,NA,"skip",0,1.911,9.765
"1428","fan","feature",71,2.846,35,1,1,34,0.85,NA,NA,NA,NA,"features",0,0.994,2.502
"1428","pork","emperor",56,2.697,18,1,1,28,0.7,NA,NA,NA,NA,"skip",0,1.221,2.643
"1428","chicken","beet",1,5.45,30,1,1,12,0.3,NA,NA,NA,NA,"skip",0,1.088,3.317
"1428","forest","knob",51,4.109,3,1,1,26,0.65,NA,NA,NA,NA,"knob",1,1.268,2.611
"1428","smother","surgery",1,2.359,1,1,0,9,0.225,NA,NA,NA,NA,"surgeon",0,5.487,7.735
"1428","bias","sirloin",1,3.591,9,1,0,1,0.025,NA,NA,NA,NA,"sirloin",1,2.947,4.691
"1428","process","joker",1,3.395,7,1,1,8,0.2,NA,NA,NA,NA,"skip",0,1.088,2.407
"1428","climax","saucer",82,5.127,31,1,0,39,0.975,NA,NA,NA,NA,"saucer",1,2.118,3.717
"1428","remind","foam",1,2.886,23,1,0,7,0.175,NA,NA,NA,NA,"skip",0,9.709,11.224
"1428","visit","glove",1,3.151,16,1,1,6,0.15,NA,NA,NA,NA,"skip",0,1.05,3.034
"1428","shrink","mafia",1,2.155,13,1,0,13,0.325,NA,NA,NA,NA,"mafia",1,4.551,5.985
"1428","pea","bathtub",80,3.716,8,1,1,38,0.95,NA,NA,NA,NA,"bathtub",1,7.142,9.107
"1428","collect","loyalty",1,4.352,21,1,0,5,0.125,NA,NA,NA,NA,"skip",0,17.076,20.638
"1428","prison","loaf",37,5.404,6,1,1,24,0.6,NA,NA,NA,NA,"loaf",1,2.434,3.868
"1428","capital","figure",77,3.857,17,1,0,37,0.925,NA,NA,NA,NA,"figure",1,1.765,3.253
"1428","anger","decay",22,8.133,25,1,1,20,0.5,NA,NA,NA,NA,"biology",0,7.485,9.328
"1428","biology","temper",23,5.669,11,1,0,21,0.525,NA,NA,NA,NA,"annoy",0,6.044,10.925
"1428","link","crisis",65,7.808,15,1,1,32,0.8,NA,NA,NA,NA,"crisis",1,1.252,2.933
"1428","banner","glide",61,2.979,22,1,1,30,0.75,NA,NA,NA,NA,"glide",1,1.215,2.361
"1428","port","cinema",13,4.091,36,1,0,17,0.425,NA,NA,NA,NA,"cinema",1,4.003,5.497
"1428","grip","beach",20,4.078,14,1,0,19,0.475,NA,NA,NA,NA,"skip",0,16.356,18.067
"1428","bullet","walkway",8,10.437,24,1,0,15,0.375,NA,NA,NA,NA,"walkway",1,2.735,4.431
"1442","capital","figure",1,2.081,37,1,0,25,0.625,NA,NA,NA,NA,"fig",0,6.016,8.363
"1442","remind","foam",1,3.163,5,1,0,13,0.325,NA,NA,NA,NA,"foam",1,11.317,13.363
"1442","bleach","ruin",1,2.833,40,1,0,15,0.375,NA,NA,NA,NA,"skip",0,9.402,10.939
"1442","collect","loyalty",1,2.208,12,1,0,9,0.225,NA,NA,NA,NA,"loyalty",1,4.168,6.547
"1442","risk","zero",1,2.401,30,1,0,17,0.425,NA,NA,NA,NA,"skip",0,12.098,14.102
"1442","rock","milk",1,2.705,22,1,1,28,0.7,NA,NA,NA,NA,"skip",0,7.409,8.842
"1442","port","cinema",1,2.084,31,1,1,10,0.25,NA,NA,NA,NA,"skip",0,14.649,17.137
"1442","bias","sirloin",1,2.851,39,1,1,20,0.5,NA,NA,NA,NA,"skip",0,6.666,7.969
"1442","shrink","mafia",1,4.383,36,1,1,24,0.6,NA,NA,NA,NA,"skip",0,7.468,8.77
"1442","find","clown",1,1.841,19,1,0,27,0.675,NA,NA,NA,NA,"skip",0,10.834,12.161
"1442","grip","beach",1,2.12,18,1,1,8,0.2,NA,NA,NA,NA,"skip",0,3.57,4.866
"1442","anger","decay",55,5.039,8,1,0,37,0.925,NA,NA,NA,NA,"decay",1,9.355,10.844
"1442","visit","glove",1,1.993,21,1,1,32,0.8,NA,NA,NA,NA,"skip",0,6.464,7.722
"1442","prison","loaf",1,2.529,27,1,1,12,0.3,NA,NA,NA,NA,"skip",0,14.739,15.898
"1442","plant","worm",65,4.237,29,1,0,39,0.975,NA,NA,NA,NA,"worm",1,5.202,6.846
"1442","date","laugh",1,2.192,7,1,0,21,0.525,NA,NA,NA,NA,"skip",0,8.246,9.507
"1442","climax","saucer",1,2.778,14,1,1,2,0.05,NA,NA,NA,NA,"skip",0,6.887,7.925
"1442","forest","knob",1,2.955,34,1,1,14,0.35,NA,NA,NA,NA,"skip",0,7.668,8.761
"1442","mill","feast",1,4.738,6,1,0,1,0.025,NA,NA,NA,NA,"feast",1,2.807,4.279
"1442","pea","bathtub",30,8.185,32,1,1,36,0.9,NA,NA,NA,NA,"bathtub",1,7.508,9.902
"1442","glue","force",1,2.353,2,1,1,30,0.75,NA,NA,NA,NA,"skip",0,8.577,9.709
"1442","fan","feature",1,2.268,20,1,1,16,0.4,NA,NA,NA,NA,"skip",0,6.935,8.326
"1442","calf","annoy",1,4.886,26,1,0,31,0.775,NA,NA,NA,NA,"annoy",1,3.682,5.563
"1442","process","joker",1,2.514,38,1,0,23,0.575,NA,NA,NA,NA,"joker",1,7.81,9.187
"1442","biology","temper",1,3.002,25,1,1,18,0.45,NA,NA,NA,NA,"skip",0,4.059,5.449
"1442","replace","roach",1,2.818,35,1,0,33,0.825,NA,NA,NA,NA,"roach",1,6.77,8.906
"1442","fee","chowder",1,3.186,13,1,0,35,0.875,NA,NA,NA,NA,"chowder",1,5.55,7.693
"1442","pork","emperor",1,2.338,16,1,0,3,0.075,NA,NA,NA,NA,"emperor",1,5.535,7.662
"1442","knock","otter",1,2.067,4,1,1,22,0.55,NA,NA,NA,NA,"skip",0,7.556,8.849
"1442","link","crisis",1,2.42,15,1,0,5,0.125,NA,NA,NA,NA,"crisis",1,13.288,16.153
"1442","copy","bedroom",1,2.195,24,1,0,7,0.175,NA,NA,NA,NA,"bedroom",1,6.491,10.558
"1442","bacon","feud",1,2.265,9,1,0,19,0.475,NA,NA,NA,NA,"skip",0,7.948,13.642
"1442","bullet","walkway",1,2.915,17,1,1,4,0.1,NA,NA,NA,NA,"skip",0,6.34,7.48
"1442","caring","skirt",1,1.971,11,1,1,26,0.65,NA,NA,NA,NA,"skip",0,5.741,6.915
"1442","chicken","beet",71,5.953,10,1,1,40,1,NA,NA,NA,NA,"beet",1,10.229,11.199
"1442","banner","glide",55,3.373,3,1,1,38,0.95,NA,NA,NA,NA,"skip",0,2.658,3.797
"1442","need","faucet",1,2.844,28,1,0,11,0.275,NA,NA,NA,NA,"faucet",1,14.013,15.506
"1442","nerve","bumper",1,2.434,33,1,1,6,0.15,NA,NA,NA,NA,"skip",0,11.021,12.787
"1442","want","ascent",1,3.891,1,1,1,34,0.85,NA,NA,NA,NA,"skip",0,7.482,8.658
"1442","smother","surgery",1,2.195,23,1,0,29,0.725,NA,NA,NA,NA,"surgery",1,13.778,19.193
"1444","need","faucet",36,2.435,20,1,1,16,0.4,NA,NA,NA,NA,"purchase",0,3.169,4.983
"1444","link","crisis",39,2.516,22,1,0,19,0.475,NA,NA,NA,NA,"toaster",0,2.696,4.118
"1444","bias","sirloin",67,4.653,2,1,1,38,0.95,NA,NA,NA,NA,"memory",0,3.322,4.783
"1444","risk","zero",34,2.981,4,1,0,13,0.325,NA,NA,NA,NA,"tolerant ",0,2.948,4.965
"1444","pea","bathtub",39,2.056,29,1,1,18,0.45,NA,NA,NA,NA,"grave",0,3.079,4.438
"1444","copy","bedroom",55,2.886,40,1,1,30,0.75,NA,NA,NA,NA,"typewriter",0,3.945,5.96
"1444","calf","annoy",10,2.942,18,1,0,1,0.025,NA,NA,NA,NA,"muscle ",0,1.52,2.815
"1444","remind","foam",31,6.765,21,1,0,9,0.225,NA,NA,NA,NA,"antique ",0,3.439,5.742
"1444","bacon","feud",91,8.278,13,1,0,39,0.975,NA,NA,NA,NA,"feud",1,1.104,3.174
"1444","knock","otter",44,2.279,1,1,0,25,0.625,NA,NA,NA,NA,"door",0,2.561,3.742
"1444","glue","force",59,2.873,15,1,0,33,0.825,NA,NA,NA,NA,"wafer",0,1.665,3.127
"1444","banner","glide",64,4.573,38,1,0,37,0.925,NA,NA,NA,NA,"table",0,10.096,11.078
"1444","want","ascent",44,1.829,19,1,1,26,0.65,NA,NA,NA,NA,"glass",0,4.296,5.359
"1444","anger","decay",34,2.542,5,1,0,11,0.275,NA,NA,NA,NA,"desk",0,3.255,4.149
"1444","climax","saucer",20,9.581,34,1,0,3,0.075,NA,NA,NA,NA,"monitor ",0,2.767,9.774
"1444","port","cinema",30,3.245,9,1,1,8,0.2,NA,NA,NA,NA,"bus",0,2.426,3.088
"1444","pork","emperor",54,3.959,30,1,1,28,0.7,NA,NA,NA,NA,"loaf",0,2.312,3.767
"1444","visit","glove",29,2.362,23,1,1,6,0.15,NA,NA,NA,NA,"coffee",0,2.689,4.038
"1444","grip","beach",35,3.358,14,1,1,14,0.35,NA,NA,NA,NA,"machine",0,0.871,2.103
"1444","process","joker",55,2.084,7,1,0,29,0.725,NA,NA,NA,NA,"speaker",0,3.951,5.189
"1444","chicken","beet",32,3.773,12,1,1,10,0.25,NA,NA,NA,NA,"fertilizer ",0,5.25,9.023
"1444","capital","figure",41,2.759,27,1,0,23,0.575,NA,NA,NA,NA,"summon ",0,2.912,24.448
"1444","find","clown",36,2.472,36,1,0,15,0.375,NA,NA,NA,NA,"barn",0,2.496,3.328
"1444","collect","loyalty",56,2.802,24,1,1,32,0.8,NA,NA,NA,NA,"water",0,1.733,2.989
"1444","prison","loaf",60,8.277,26,1,1,34,0.85,NA,NA,NA,NA,"loaf",1,1.398,5.471
"1444","biology","temper",61,2.776,33,1,0,35,0.875,NA,NA,NA,NA,"universe ",0,6.362,8.062
"1444","forest","knob",20,2.199,31,1,1,4,0.1,NA,NA,NA,NA,"planted ",0,2.526,4.006
"1444","bleach","ruin",45,2.292,37,1,0,27,0.675,NA,NA,NA,NA,"sky",0,3.376,4.329
"1444","date","laugh",40,1.989,17,1,1,20,0.5,NA,NA,NA,NA,"speaker",0,2.525,10.94
"1444","nerve","bumper",40,2.181,3,1,1,22,0.55,NA,NA,NA,NA,"body",0,3.143,4.078
"1444","rock","milk",63,2.015,10,1,1,36,0.9,NA,NA,NA,NA,"soil",0,4.145,5.081
"1444","fee","chowder",44,1.987,8,1,1,24,0.6,NA,NA,NA,NA,"metal",0,14.488,15.732
"1444","plant","worm",95,10.969,39,1,1,40,1,NA,NA,NA,NA,"worm",1,1.006,2.422
"1444","replace","roach",30,4.469,11,1,0,7,0.175,NA,NA,NA,NA,"taking ",0,2.239,3.464
"1444","caring","skirt",14,2.261,28,1,1,2,0.05,NA,NA,NA,NA,"wall",0,6.939,7.775
"1444","bullet","walkway",25,2.295,16,1,0,5,0.125,NA,NA,NA,NA,"fired",0,1.935,3.014
"1444","shrink","mafia",39,4.22,6,1,0,17,0.425,NA,NA,NA,NA,"testing",0,6.344,7.79
"1444","fan","feature",34,2.469,25,1,1,12,0.3,NA,NA,NA,NA,"delusional ",0,3.896,7.113
"1444","mill","feast",40,2.372,32,1,0,21,0.525,NA,NA,NA,NA,"salt",0,3.47,4.989
"1444","smother","surgery",56,2.701,35,1,0,31,0.775,NA,NA,NA,NA,"taking ",0,1.703,2.909
"1515","replace","roach",1,2.637,6,1,0,26,0.65,NA,NA,NA,NA,"skip",0,2.45,3.913
"1515","chicken","beet",1,2.315,20,1,0,2,0.05,NA,NA,NA,NA,"skip",0,1.572,2.958
"1515","remind","foam",1,2.463,12,1,0,18,0.45,NA,NA,NA,NA,"skip",0,1.038,2.574
"1515","visit","glove",1,2.037,2,1,1,19,0.475,NA,NA,NA,NA,"skip",0,1.049,2.295
"1515","climax","saucer",1,2.508,17,1,1,25,0.625,NA,NA,NA,NA,"skip",0,2.214,3.507
"1515","anger","decay",27,3.088,29,1,1,37,0.925,NA,NA,NA,NA,"skip",0,1.134,2.432
"1515","glue","force",1,1.887,24,1,1,15,0.375,NA,NA,NA,NA,"skip",0,1.931,3.217
"1515","bleach","ruin",79,3.649,19,1,1,39,0.975,NA,NA,NA,NA,"ruin",1,0.968,2.893
"1515","find","clown",1,1.919,16,1,0,28,0.7,NA,NA,NA,NA,"skip",0,4.114,6.201
"1515","pea","bathtub",2,2.068,36,1,1,33,0.825,NA,NA,NA,NA,"skip",0,1.931,3.493
"1515","knock","otter",1,1.824,4,1,1,17,0.425,NA,NA,NA,NA,"skip",0,1.085,2.287
"1515","grip","beach",1,2.377,40,1,0,24,0.6,NA,NA,NA,NA,"skip",0,0.98,2.19
"1515","shrink","mafia",1,1.957,28,1,1,11,0.275,NA,NA,NA,NA,"skip",0,0.973,2.201
"1515","bacon","feud",76,6.304,31,1,0,38,0.95,NA,NA,NA,NA,"skip",0,3.187,4.475
"1515","pork","emperor",25,6.542,9,1,0,36,0.9,NA,NA,NA,NA,"emporer",0,1.583,3.12
"1515","plant","worm",1,2.287,11,1,0,30,0.75,NA,NA,NA,NA,"skip",0,0.958,2.23
"1515","collect","loyalty",1,1.885,32,1,1,13,0.325,NA,NA,NA,NA,"skip",0,0.959,2.471
"1515","nerve","bumper",1,1.766,5,1,1,29,0.725,NA,NA,NA,NA,"skip",0,0.757,2.045
"1515","risk","zero",3,2.337,39,1,0,34,0.85,NA,NA,NA,NA,"skip",0,1.233,2.369
"1515","port","cinema",1,2.059,7,1,0,8,0.2,NA,NA,NA,NA,"skip",0,3.199,4.428
"1515","caring","skirt",1,12.581,10,1,1,21,0.525,NA,NA,NA,NA,"skip",0,1.212,2.416
"1515","biology","temper",1,2.321,13,1,0,22,0.55,NA,NA,NA,NA,"skip",0,0.915,2.196
"1515","link","crisis",1,2.061,22,1,0,10,0.25,NA,NA,NA,NA,"skip",0,1.239,2.457
"1515","process","joker",1,1.856,8,1,1,1,0.025,NA,NA,NA,NA,"skip",0,1.084,2.401
"1515","want","ascent",1,2.332,35,1,1,3,0.075,NA,NA,NA,NA,"skip",0,1.2,2.436
"1515","banner","glide",9,2.864,23,1,1,35,0.875,NA,NA,NA,NA,"skip",0,0.861,2.075
"1515","prison","loaf",1,3.031,14,1,0,6,0.15,NA,NA,NA,NA,"skip",0,0.856,2.4
"1515","rock","milk",100,3.947,21,1,0,40,1,NA,NA,NA,NA,"skip",0,1.919,3.171
"1515","bias","sirloin",1,2.398,18,1,0,4,0.1,NA,NA,NA,NA,"skip",0,1.147,2.291
"1515","fee","chowder",1,1.933,25,1,1,31,0.775,NA,NA,NA,NA,"feeling",0,2.014,3.518
"1515","calf","annoy",1,1.822,15,1,0,16,0.4,NA,NA,NA,NA,"skip",0,1.015,2.24
"1515","date","laugh",1,1.646,33,1,1,5,0.125,NA,NA,NA,NA,"skip",0,0.798,2.085
"1515","fan","feature",1,3.099,26,1,0,32,0.8,NA,NA,NA,NA,"skip",0,1.536,3.074
"1515","copy","bedroom",1,1.877,27,1,0,14,0.35,NA,NA,NA,NA,"skip",0,0.81,2.119
"1515","smother","surgery",1,1.725,37,1,1,7,0.175,NA,NA,NA,NA,"skip",0,0.818,2.102
"1515","need","faucet",1,1.871,3,1,1,27,0.675,NA,NA,NA,NA,"skip",0,0.814,2.787
"1515","bullet","walkway",1,2.588,30,1,1,9,0.225,NA,NA,NA,NA,"skip",0,0.859,2.088
"1515","mill","feast",1,1.83,34,1,0,12,0.3,NA,NA,NA,NA,"skip",0,1.199,2.458
"1515","forest","knob",1,2.128,1,1,1,23,0.575,NA,NA,NA,NA,"skip",0,1.214,2.388
"1515","capital","figure",1,3.321,38,1,0,20,0.5,NA,NA,NA,NA,"skip",0,1.133,3.149
"1694","find","clown",38,1.784,2,1,0,13,0.325,NA,NA,NA,NA,"walk",0,5.386,6.007
"1694","anger","decay",70,1.426,40,1,1,30,0.75,NA,NA,NA,NA,"calf",0,6.896,8.422
"1694","risk","zero",76,1.786,33,1,0,37,0.925,NA,NA,NA,NA,"push",0,35.098,35.805
"1694","bleach","ruin",79,1.974,14,1,0,39,0.975,NA,NA,NA,NA,"bedroom",0,3.228,4.601
"1694","nerve","bumper",34,1.58,34,1,1,6,0.15,NA,NA,NA,NA,"milk",0,6.67,7.786
"1694","visit","glove",38,1.767,39,1,1,12,0.3,NA,NA,NA,NA,"remote",0,8.914,9.927
"1694","remind","foam",72,1.977,11,1,1,34,0.85,NA,NA,NA,NA,"replace",0,1.638,2.738
"1694","plant","worm",61,1.99,18,1,1,18,0.45,NA,NA,NA,NA,"bed",0,1.336,9.007
"1694","climax","saucer",65,1.251,21,1,1,24,0.6,NA,NA,NA,NA,"fall",0,46.995,47.583
"1694","bias","sirloin",72,1.89,3,1,0,33,0.825,NA,NA,NA,NA,"make",0,3.473,4.109
"1694","fee","chowder",24,1.737,4,1,0,1,0.025,NA,NA,NA,NA,"ground",0,2.209,3.256
"1694","rock","milk",35,1.728,20,1,0,7,0.175,NA,NA,NA,NA,"oil",0,3.845,4.416
"1694","banner","glide",41,1.541,8,1,0,15,0.375,NA,NA,NA,NA,"town",0,4.68,7.353
"1694","link","crisis",64,2.03,15,1,1,22,0.55,NA,NA,NA,NA,"arrow",0,1.576,8.609
"1694","biology","temper",74,1.713,5,1,1,36,0.9,NA,NA,NA,NA,"book",0,1.443,2.064
"1694","bacon","feud",100,3.756,28,1,1,40,1,NA,NA,NA,NA,"feud",1,3.13,4.121
"1694","collect","loyalty",62,1.534,32,1,0,21,0.525,NA,NA,NA,NA,"phone",0,4.489,5.268
"1694","fan","feature",71,1.913,26,1,1,32,0.8,NA,NA,NA,NA,"rock",0,2.406,7.888
"1694","smother","surgery",66,1.729,1,1,1,26,0.65,NA,NA,NA,NA,"computer",0,5.047,6.69
"1694","pork","emperor",74,2.137,38,1,0,35,0.875,NA,NA,NA,NA,"angry",0,3.284,4.451
"1694","port","cinema",33,1.606,7,1,0,5,0.125,NA,NA,NA,NA,"sleep",0,6.42,7.15
"1694","bullet","walkway",68,1.57,22,1,1,28,0.7,NA,NA,NA,NA,"bill",0,1.675,2.305
"1694","grip","beach",38,1.489,37,1,1,10,0.25,NA,NA,NA,NA,"fan",0,5.295,5.815
"1694","forest","knob",76,2.06,29,1,1,38,0.95,NA,NA,NA,NA,"ground",0,1.273,2.217
"1694","copy","bedroom",36,1.528,17,1,0,9,0.225,NA,NA,NA,NA,"clip",0,15.07,21.853
"1694","prison","loaf",58,1.372,13,1,0,17,0.425,NA,NA,NA,NA,"car",0,3.737,4.352
"1694","shrink","mafia",68,1.589,10,1,0,29,0.725,NA,NA,NA,NA,"dog",0,8.306,8.845
"1694","capital","figure",66,1.566,27,1,0,25,0.625,NA,NA,NA,NA,"shirt",0,16.677,17.443
"1694","replace","roach",40,1.983,16,1,1,14,0.35,NA,NA,NA,NA,"remind",0,1.2,2.069
"1694","pea","bathtub",62,2.708,30,1,1,20,0.5,NA,NA,NA,NA,"pill",0,2.751,3.466
"1694","glue","force",65,1.882,31,1,0,23,0.575,NA,NA,NA,NA,"pencil",0,6.421,7.62
"1694","want","ascent",29,3.174,19,1,1,2,0.05,NA,NA,NA,NA,"keep",0,3.42,4.347
"1694","caring","skirt",35,1.82,6,1,1,8,0.2,NA,NA,NA,NA,"angry",0,1.615,2.492
"1694","process","joker",42,1.629,36,1,1,16,0.4,NA,NA,NA,NA,"pull",0,3.764,4.788
"1694","calf","annoy",67,5.061,35,1,0,27,0.675,NA,NA,NA,NA,"angry",0,0.969,1.869
"1694","knock","otter",61,1.241,9,1,0,19,0.475,NA,NA,NA,NA,"chair",0,15.651,16.628
"1694","need","faucet",29,1.613,12,1,0,3,0.075,NA,NA,NA,NA,"play",0,7.118,8.267
"1694","chicken","beet",71,1.244,24,1,0,31,0.775,NA,NA,NA,NA,"run",0,4.817,7.282
"1694","date","laugh",38,2.084,23,1,0,11,0.275,NA,NA,NA,NA,"dive",0,5.783,6.906
"1694","mill","feast",32,1.636,25,1,1,4,0.1,NA,NA,NA,NA,"pea",0,2.189,2.951
"1808","pea","bathtub",100,2.363,13,1,1,34,0.85,NA,NA,NA,NA,"bathtub",1,2.432,4.696
"1808","caring","skirt",10,6.161,26,1,1,4,0.1,NA,NA,NA,NA,"skirt",1,8.358,10.652
"1808","capital","figure",80,3.943,20,1,1,22,0.55,NA,NA,NA,NA,"loyalty",0,1.482,3.29
"1808","visit","glove",12,3.483,27,1,1,6,0.15,NA,NA,NA,NA,"glue",0,6.677,8.824
"1808","process","joker",20,4.873,32,1,0,9,0.225,NA,NA,NA,NA,"learning",0,2.489,4.351
"1808","smother","surgery",80,6.411,17,1,0,23,0.575,NA,NA,NA,NA,"surgery",1,1.429,2.827
"1808","date","laugh",100,2.537,9,1,0,31,0.775,NA,NA,NA,NA,"laugh",1,1.995,4.771
"1808","anger","decay",10,2.875,38,1,0,5,0.125,NA,NA,NA,NA,"decay",1,5.195,6.217
"1808","nerve","bumper",59,4.101,33,1,1,18,0.45,NA,NA,NA,NA,"feast",0,12.077,13.479
"1808","prison","loaf",100,1.615,22,1,1,40,1,NA,NA,NA,NA,"loaf",1,11.27,12.616
"1808","bleach","ruin",100,2.225,16,1,1,32,0.8,NA,NA,NA,NA,"ruin",1,4.462,5.832
"1808","rock","milk",88,2.843,23,1,1,24,0.6,NA,NA,NA,NA,"milk",1,2.294,2.975
"1808","find","clown",15,10.057,18,1,0,7,0.175,NA,NA,NA,NA,"beach",0,6.838,7.699
"1808","glue","force",90,4.547,5,1,1,26,0.65,NA,NA,NA,NA,"force",1,1.024,3.606
"1808","shrink","mafia",99,2.389,10,1,0,27,0.675,NA,NA,NA,NA,"mall",0,2.89,3.976
"1808","risk","zero",100,3.63,36,1,1,28,0.7,NA,NA,NA,NA,"zero",1,1.559,4.498
"1808","need","faucet",20,7.539,21,1,0,11,0.275,NA,NA,NA,NA,"caring",0,9.951,12.591
"1808","biology","temper",10,3.007,4,1,0,3,0.075,NA,NA,NA,NA,"decay",0,1.903,2.817
"1808","collect","loyalty",100,2.069,34,1,1,38,0.95,NA,NA,NA,NA,"loyalty",1,3.136,5.32
"1808","plant","worm",100,1.584,35,1,0,37,0.925,NA,NA,NA,NA,"worm",1,1.816,3.149
"1808","fee","chowder",35,6.577,29,1,0,15,0.375,NA,NA,NA,NA,"feature",0,1.08,2.694
"1808","remind","foam",1,2.341,25,1,1,2,0.05,NA,NA,NA,NA,"foam",1,5.431,7.7
"1808","bullet","walkway",100,2.107,2,1,1,30,0.75,NA,NA,NA,NA,"walkaway",0,0.991,2.476
"1808","replace","roach",26,2.467,39,1,0,13,0.325,NA,NA,NA,NA,"foam",0,2.5,10.786
"1808","bias","sirloin",25,4.623,24,1,1,12,0.3,NA,NA,NA,NA,"sirloin",1,1.153,3.766
"1808","want","ascent",20,8.161,37,1,1,10,0.25,NA,NA,NA,NA,"need",0,3.038,4.866
"1808","banner","glide",50,4.989,15,1,0,17,0.425,NA,NA,NA,NA,"glide",1,1.291,3
"1808","forest","knob",90,2.906,12,1,0,25,0.625,NA,NA,NA,NA,"knob",1,10.208,11.654
"1808","pork","emperor",71,4.095,3,1,1,20,0.5,NA,NA,NA,NA,"emperor",1,21.162,23.563
"1808","link","crisis",65,6.402,28,1,0,19,0.475,NA,NA,NA,NA,"crisis",1,10.719,12.612
"1808","copy","bedroom",1,2.778,30,1,0,1,0.025,NA,NA,NA,NA,"paper",0,3.033,6.567
"1808","bacon","feud",100,3.757,40,1,0,33,0.825,NA,NA,NA,NA,"feed",0,3.923,5.537
"1808","climax","saucer",40,5.845,8,1,1,16,0.4,NA,NA,NA,NA,"clown",0,6.448,8.036
"1808","grip","beach",100,3.692,7,1,0,29,0.725,NA,NA,NA,NA,"beach",1,6.284,7.053
"1808","port","cinema",79,2.849,1,1,0,21,0.525,NA,NA,NA,NA,"cinema",1,5.102,6.887
"1808","chicken","beet",30,9.788,14,1,1,14,0.35,NA,NA,NA,NA,"egg",0,1.992,2.935
"1808","calf","annoy",100,2.225,6,1,1,36,0.9,NA,NA,NA,NA,"annoy",1,0.893,1.976
"1808","mill","feast",100,2.067,31,1,0,39,0.975,NA,NA,NA,NA,"feast",1,1.077,1.584
"1808","fan","feature",100,2.952,19,1,0,35,0.875,NA,NA,NA,NA,"feature",1,0.836,2.296
"1808","knock","otter",15,3.563,11,1,1,8,0.2,NA,NA,NA,NA,"otter",1,1.484,4.973
"1997","process","joker",1,1.861,37,1,0,10,0.25,NA,NA,NA,NA,"skip",0,3.19,4.877
"1997","replace","roach",1,1.999,28,1,0,4,0.1,NA,NA,NA,NA,"skip",0,1.133,1.612
"1997","knock","otter",1,2.522,17,1,0,12,0.3,NA,NA,NA,NA,"skip",0,1.15,1.478
"1997","forest","knob",1,2.253,12,1,0,6,0.15,NA,NA,NA,NA,"skip",0,1.369,2.698
"1997","bleach","ruin",100,2.063,31,1,1,27,0.675,NA,NA,NA,NA,"ruin",1,1.276,2.74
"1997","pea","bathtub",1,2.137,32,1,1,3,0.075,NA,NA,NA,NA,"skip",0,0.852,1.26
"1997","anger","decay",1,5.031,38,1,0,2,0.05,NA,NA,NA,NA,"decaying",0,2.6,8.232
"1997","want","ascent",100,3.963,34,1,1,35,0.875,NA,NA,NA,NA,"ascend",0,1.067,4.058
"1997","pork","emperor",19,7.585,2,1,1,19,0.475,NA,NA,NA,NA,"skip",0,1.469,1.766
"1997","need","faucet",1,2.625,10,1,1,13,0.325,NA,NA,NA,NA,"skip",0,1.099,1.366
"1997","risk","zero",100,4.93,30,1,0,26,0.65,NA,NA,NA,NA,"zero",1,4.262,5.856
"1997","collect","loyalty",1,2.257,40,1,0,8,0.2,NA,NA,NA,NA,"skip",0,1.227,1.604
"1997","rock","milk",16,4.129,29,1,0,18,0.45,NA,NA,NA,NA,"skip",0,5.32,5.979
"1997","bias","sirloin",100,2.408,4,1,0,32,0.8,NA,NA,NA,NA,"sirloin",1,4.24,7.423
"1997","plant","worm",1,1.927,1,1,1,17,0.425,NA,NA,NA,NA,"skip",0,0.893,1.159
"1997","link","crisis",1,2.327,21,1,1,7,0.175,NA,NA,NA,NA,"skip",0,0.837,1.146
"1997","fan","feature",100,2.508,36,1,1,37,0.925,NA,NA,NA,NA,"skip",0,0.921,1.247
"1997","port","cinema",100,1.919,22,1,0,30,0.75,NA,NA,NA,NA,"skip",0,6.217,6.491
"1997","bacon","feud",1,2.369,33,1,0,14,0.35,NA,NA,NA,NA,"skip",0,0.901,2.539
"1997","glue","force",100,2.005,39,1,1,39,0.975,NA,NA,NA,NA,"force",1,1.294,2.789
"1997","bullet","walkway",100,2.269,13,1,0,34,0.85,NA,NA,NA,NA,"walkway",1,2.696,5.925
"1997","fee","chowder",25,3.339,25,1,0,22,0.55,NA,NA,NA,NA,"skip",0,2.221,3.737
"1997","prison","loaf",1,2.365,26,1,1,15,0.375,NA,NA,NA,NA,"skip",0,1.019,1.261
"1997","caring","skirt",100,2.355,11,1,0,28,0.7,NA,NA,NA,NA,"skirt",1,2.073,3.339
"1997","biology","temper",100,2.205,16,1,1,29,0.725,NA,NA,NA,NA,"temper",1,1.622,3.36
"1997","copy","bedroom",34,4.269,9,1,0,24,0.6,NA,NA,NA,NA,"skip",0,0.858,1.139
"1997","mill","feast",19,2.465,14,1,0,20,0.5,NA,NA,NA,NA,"skip",0,1.676,2.052
"1997","grip","beach",100,2.083,18,1,0,38,0.95,NA,NA,NA,NA,"skip",0,0.929,4.215
"1997","nerve","bumper",1,2.055,8,1,0,16,0.4,NA,NA,NA,NA,"skip",0,1.004,1.236
"1997","shrink","mafia",24,2.994,3,1,1,21,0.525,NA,NA,NA,NA,"skip",0,0.832,1.041
"1997","chicken","beet",1,2.253,7,1,1,11,0.275,NA,NA,NA,NA,"skip",0,1.028,1.335
"1997","remind","foam",1,2.615,35,1,1,5,0.125,NA,NA,NA,NA,"skip",0,0.78,1.407
"1997","calf","annoy",71,2.726,20,1,1,25,0.625,NA,NA,NA,NA,"annoyed",0,1.311,3.063
"1997","banner","glide",100,2.129,5,1,1,31,0.775,NA,NA,NA,NA,"glide",1,1.559,2.991
"1997","date","laugh",100,2.022,15,1,1,33,0.825,NA,NA,NA,NA,"laugh",1,2.161,3.568
"1997","smother","surgery",100,2.481,6,1,0,36,0.9,NA,NA,NA,NA,"surgery",1,1.81,3.659
"1997","capital","figure",30,2.339,23,1,1,23,0.575,NA,NA,NA,NA,"skip",0,1.299,1.639
"1997","climax","saucer",100,2.187,19,1,0,40,1,NA,NA,NA,NA,"saucer",1,2.214,3.705
"1997","visit","glove",1,2.397,24,1,1,1,0.025,NA,NA,NA,NA,"skip",0,1.656,2.047
"1997","find","clown",1,2.326,27,1,1,9,0.225,NA,NA,NA,NA,"skip",0,0.881,1.253
"2216","copy","bedroom",4,2.251,39,1,1,12,0.3,NA,NA,NA,NA,"SKIP",0,3.118,7.544
"2216","anger","decay",12,4.661,17,1,0,31,0.775,NA,NA,NA,NA,"SKIP",0,1.781,4.75
"2216","replace","roach",3,2.822,1,1,1,4,0.1,NA,NA,NA,NA,"SKIP",0,1.686,4.309
"2216","caring","skirt",9,2.72,6,1,0,27,0.675,NA,NA,NA,NA,"skirt",1,1.615,15.416
"2216","grip","beach",74,4.616,29,1,1,32,0.8,NA,NA,NA,NA,"beach",1,1.646,4.62
"2216","visit","glove",3,2.33,21,1,1,6,0.15,NA,NA,NA,NA,"SKIP",0,2.577,8.583
"2216","knock","otter",4,3.065,35,1,1,10,0.25,NA,NA,NA,NA,"SKIP",0,5.338,7.378
"2216","prison","loaf",88,3.964,34,1,0,39,0.975,NA,NA,NA,NA,"loaf",1,5.815,14.236
"2216","risk","zero",6,2.918,18,1,1,24,0.6,NA,NA,NA,NA,"SKIP",0,11.084,14.319
"2216","chicken","beet",84,2.823,23,1,0,37,0.925,NA,NA,NA,NA,"beet",1,4.805,9.581
"2216","remind","foam",6,9.112,2,1,0,21,0.525,NA,NA,NA,NA,"SKIP",0,2.406,4.459
"2216","calf","annoy",83,9.917,13,1,0,35,0.875,NA,NA,NA,NA,"annoy",1,3.883,6.621
"2216","capital","figure",6,2.461,30,1,1,22,0.55,NA,NA,NA,NA,"SKIP",0,4.685,7.054
"2216","bleach","ruin",84,3.611,22,1,1,38,0.95,NA,NA,NA,NA,"ruin",1,5.156,7.384
"2216","climax","saucer",3,2.307,28,1,0,3,0.075,NA,NA,NA,NA,"SKIP",0,3.19,5.385
"2216","process","joker",3,2.439,31,1,0,7,0.175,NA,NA,NA,NA,"SKIP",0,1.933,4.015
"2216","date","laugh",9,4.807,38,1,1,26,0.65,NA,NA,NA,NA,"laugh",1,3.533,6.154
"2216","biology","temper",5,2.439,14,1,1,18,0.45,NA,NA,NA,NA,"SKIP",0,2.275,4.461
"2216","want","ascent",4,2.182,20,1,0,13,0.325,NA,NA,NA,NA,"SKIP",0,12.769,16.491
"2216","bias","sirloin",89,14.639,8,1,1,40,1,NA,NA,NA,NA,"sirloin",1,3.62,6.441
"2216","glue","force",3,2.721,27,1,1,8,0.2,NA,NA,NA,NA,"SKIP",0,2.379,4.596
"2216","bacon","feud",84,5.246,9,1,1,36,0.9,NA,NA,NA,NA,"feud",1,8.84,17.196
"2216","shrink","mafia",6,2.745,19,1,0,23,0.575,NA,NA,NA,NA,"mafia",1,23.329,26.191
"2216","bullet","walkway",5,3.836,25,1,1,16,0.4,NA,NA,NA,NA,"SKIP",0,2.838,5.366
"2216","need","faucet",5,7.304,15,1,0,17,0.425,NA,NA,NA,NA,"SKIP",0,2.226,26.953
"2216","collect","loyalty",3,2.941,4,1,0,5,0.125,NA,NA,NA,NA,"SKIP",0,4.039,6.357
"2216","fee","chowder",5,2.336,5,1,0,19,0.475,NA,NA,NA,NA,"chowder",1,5.296,8.617
"2216","pea","bathtub",78,6.356,16,1,1,34,0.85,NA,NA,NA,NA,"bathtub",1,2.024,6.293
"2216","rock","milk",3,3.258,24,1,0,9,0.225,NA,NA,NA,NA,"milk",1,2.352,5.001
"2216","mill","feast",4,3.37,32,1,1,14,0.35,NA,NA,NA,NA,"SKIP",0,3.128,5.219
"2216","link","crisis",9,2.831,12,1,0,25,0.625,NA,NA,NA,NA,"SKIP",0,2.179,4.4
"2216","port","cinema",4,3.261,11,1,0,11,0.275,NA,NA,NA,NA,"SKIP",0,24.776,26.786
"2216","nerve","bumper",10,2.322,26,1,1,30,0.75,NA,NA,NA,NA,"SKIP",0,1.935,3.968
"2216","banner","glide",1,2.737,33,1,1,2,0.05,NA,NA,NA,NA,"SKIP",0,4.991,7.319
"2216","pork","emperor",4,2.48,10,1,0,15,0.375,NA,NA,NA,NA,"SKIP",0,22.804,25.031
"2216","forest","knob",1,2.408,3,1,0,1,0.025,NA,NA,NA,NA,"knob",1,3.432,5.377
"2216","smother","surgery",75,4.224,36,1,0,33,0.825,NA,NA,NA,NA,"SKIP",0,13.318,15.814
"2216","plant","worm",10,4.944,37,1,0,29,0.725,NA,NA,NA,NA,"worm",1,3.41,5.377
"2216","find","clown",6,2.887,40,1,1,20,0.5,NA,NA,NA,NA,"SKIP",0,5.603,19.569
"2216","fan","feature",10,9.971,7,1,1,28,0.7,NA,NA,NA,NA,"SKIP",0,2.398,7.098
"2224","port","cinema",19,1.489,7,1,0,7,0.175,NA,NA,NA,NA,"left",0,4.318,5.998
"2224","capital","figure",67,1.345,17,1,0,31,0.775,NA,NA,NA,NA,"bowl",0,3.528,7.005
"2224","prison","loaf",27,1.585,11,1,0,13,0.325,NA,NA,NA,NA,"SKIP",0,2.668,4.423
"2224","remind","foam",69,1.441,8,1,1,32,0.8,NA,NA,NA,NA,"tell",0,1.323,3.078
"2224","date","laugh",38,1.361,35,1,1,18,0.45,NA,NA,NA,NA,"small",0,2.889,4.967
"2224","smother","surgery",59,1.281,34,1,1,24,0.6,NA,NA,NA,NA,"rain",0,4.072,6.222
"2224","caring","skirt",71,1.521,30,1,1,34,0.85,NA,NA,NA,NA,"house",0,2.28,3.965
"2224","copy","bedroom",70,1.474,38,1,0,33,0.825,NA,NA,NA,NA,"paper",0,1.699,3.51
"2224","collect","loyalty",63,1.424,9,1,0,27,0.675,NA,NA,NA,NA,"deal",0,1.712,3.541
"2224","find","clown",23,1.329,24,1,0,9,0.225,NA,NA,NA,NA,"learn",0,2.63,10.59
"2224","pea","bathtub",40,1.281,37,1,0,19,0.475,NA,NA,NA,NA,"base",0,3.348,5.641
"2224","banner","glide",62,1.279,28,1,1,26,0.65,NA,NA,NA,NA,"frog",0,2.586,4.496
"2224","glue","force",64,2.147,29,1,1,28,0.7,NA,NA,NA,NA,"table",0,1.648,5.393
"2224","bacon","feud",82,1.522,26,1,1,38,0.95,NA,NA,NA,NA,"ghost",0,2.141,4.528
"2224","bullet","walkway",35,1.249,14,1,0,17,0.425,NA,NA,NA,NA,"vault",0,2.997,7.072
"2224","chicken","beet",33,1.371,12,1,0,15,0.375,NA,NA,NA,NA,"dog",0,2.775,4.222
"2224","pork","emperor",30,5.159,2,1,1,14,0.35,NA,NA,NA,NA,"rib",0,2.113,3.744
"2224","link","crisis",10,1.408,15,1,0,3,0.075,NA,NA,NA,NA,"phase",0,4.593,8.739
"2224","mill","feast",67,1.663,40,1,1,30,0.75,NA,NA,NA,NA,"wind",0,5.722,7.541
"2224","fan","feature",33,1.313,25,1,1,16,0.4,NA,NA,NA,NA,"assume",0,5.399,7.639
"2224","visit","glove",14,1.393,5,1,0,5,0.125,NA,NA,NA,NA,"farm",0,3.018,7.921
"2224","knock","otter",6,1.393,31,1,0,1,0.025,NA,NA,NA,NA,"door",0,1.822,3.598
"2224","anger","decay",41,1.393,36,1,0,21,0.525,NA,NA,NA,NA,"joke",0,3.028,7.856
"2224","process","joker",85,1.489,16,1,1,40,1,NA,NA,NA,NA,"direction",0,2.622,5.817
"2224","shrink","mafia",8,1.553,39,1,1,2,0.05,NA,NA,NA,NA,"mafia",1,3.608,5.796
"2224","want","ascent",80,1.841,22,1,0,37,0.925,NA,NA,NA,NA,"need",0,1.656,2.956
"2224","replace","roach",61,1.522,23,1,0,25,0.625,NA,NA,NA,NA,"lake",0,3.523,6.766
"2224","need","faucet",19,1.649,21,1,1,6,0.15,NA,NA,NA,NA,"beer",0,3.942,7.591
"2224","biology","temper",40,1.298,3,1,1,20,0.5,NA,NA,NA,NA,"blood",0,1.815,3.749
"2224","risk","zero",42,1.425,20,1,1,22,0.55,NA,NA,NA,NA,"reward",0,2.902,4.642
"2224","bleach","ruin",74,1.425,33,1,0,35,0.875,NA,NA,NA,NA,"white",0,5.463,8.068
"2224","nerve","bumper",23,1.201,10,1,1,10,0.25,NA,NA,NA,NA,"slim",0,6.401,8.303
"2224","climax","saucer",20,1.233,1,1,1,8,0.2,NA,NA,NA,NA,"story",0,2.327,5.01
"2224","bias","sirloin",84,1.311,32,1,0,39,0.975,NA,NA,NA,NA,"green",0,1.696,3.59
"2224","fee","chowder",10,1.553,6,1,1,4,0.1,NA,NA,NA,NA,"pay",0,2.035,3.358
"2224","rock","milk",65,1.265,18,1,0,29,0.725,NA,NA,NA,NA,"milk",1,7.437,9.34
"2224","grip","beach",59,1.265,19,1,0,23,0.575,NA,NA,NA,NA,"hand",0,2.318,4.477
"2224","calf","annoy",24,1.234,27,1,0,11,0.275,NA,NA,NA,NA,"legs",0,3.323,5.049
"2224","forest","knob",79,1.634,4,1,1,36,0.9,NA,NA,NA,NA,"sun",0,1.592,4.671
"2224","plant","worm",25,1.473,13,1,1,12,0.3,NA,NA,NA,NA,"water",0,2.267,3.808
"2296","calf","annoy",100,3.21,35,1,1,22,0.55,NA,NA,NA,NA,"annoy",1,2.696,5.693
"2296","nerve","bumper",28,2.669,6,1,0,1,0.025,NA,NA,NA,NA,"glove",0,6.252,9.03
"2296","grip","beach",48,3.561,10,1,1,4,0.1,NA,NA,NA,NA,"glove",0,3.198,5.938
"2296","collect","loyalty",58,3.049,9,1,1,12,0.3,NA,NA,NA,NA,"shrink",0,2.143,7.661
"2296","knock","otter",100,3.72,4,1,1,20,0.5,NA,NA,NA,NA,"glove",0,2.024,4.068
"2296","find","clown",58,5.862,38,1,0,11,0.275,NA,NA,NA,NA,"glove",0,3.231,7.133
"2296","link","crisis",100,2.598,34,1,0,37,0.925,NA,NA,NA,NA,"crisis",1,2.463,7.538
"2296","anger","decay",52,5.982,18,1,0,5,0.125,NA,NA,NA,NA,"biology",0,7.008,9.871
"2296","pea","bathtub",58,3.181,20,1,1,10,0.25,NA,NA,NA,NA,"chicken",0,1.905,4.703
"2296","fan","feature",100,5.45,21,1,1,34,0.85,NA,NA,NA,NA,"feud",0,2.064,3.971
"2296","replace","roach",57,2.543,24,1,0,9,0.225,NA,NA,NA,NA,"feud",0,6.968,10.366
"2296","remind","foam",67,5.605,29,1,1,16,0.4,NA,NA,NA,NA,"feud",0,2.138,4.643
"2296","process","joker",100,2.831,1,1,1,26,0.65,NA,NA,NA,NA,"joker",1,1.787,3.905
"2296","smother","surgery",44,6.067,26,1,1,2,0.05,NA,NA,NA,NA,"call",0,3.092,5.354
"2296","banner","glide",100,3.023,11,1,1,24,0.6,NA,NA,NA,NA,"glide",1,1.727,3.932
"2296","plant","worm",59,2.514,23,1,0,13,0.325,NA,NA,NA,NA,"process",0,28.625,31.251
"2296","forest","knob",100,2.692,16,1,1,38,0.95,NA,NA,NA,NA,"knob",1,3.914,6.009
"2296","glue","force",67,7.12,3,1,1,14,0.35,NA,NA,NA,NA,"bill",0,5.863,7.647
"2296","biology","temper",100,2.807,32,1,0,29,0.725,NA,NA,NA,NA,"temper",1,1.61,3.808
"2296","need","faucet",100,2.691,7,1,0,25,0.625,NA,NA,NA,NA,"bill",0,6.754,8.806
"2296","fee","chowder",53,3.149,2,1,1,6,0.15,NA,NA,NA,NA,"soup",0,3.166,11.138
"2296","caring","skirt",100,3.351,31,1,0,19,0.475,NA,NA,NA,NA,"skirt",1,2.498,4.544
"2296","prison","loaf",100,5.185,15,1,0,31,0.775,NA,NA,NA,NA,"loaf",1,2.101,4.524
"2296","pork","emperor",54,3.03,19,1,1,8,0.2,NA,NA,NA,NA,"feud",0,1.337,3.342
"2296","copy","bedroom",100,7.264,14,1,1,40,1,NA,NA,NA,NA,"bedroom",1,1.972,4.62
"2296","port","cinema",100,4.388,40,1,1,30,0.75,NA,NA,NA,NA,"cinema",1,2.464,4.597
"2296","visit","glove",100,2.897,22,1,0,39,0.975,NA,NA,NA,NA,"glove",1,2.778,12.841
"2296","bullet","walkway",100,2.668,37,1,1,36,0.9,NA,NA,NA,NA,"walkway",1,2.481,5.357
"2296","bleach","ruin",100,3.809,27,1,0,21,0.525,NA,NA,NA,NA,"millennial",0,8.41,14.39
"2296","capital","figure",67,4.648,12,1,0,17,0.425,NA,NA,NA,NA,"vision",0,4.737,7.166
"2296","chicken","beet",67,5.321,30,1,0,15,0.375,NA,NA,NA,NA,"pea",0,3.352,5.46
"2296","bacon","feud",100,2.698,33,1,1,32,0.8,NA,NA,NA,NA,"feud",1,1.522,3.518
"2296","want","ascent",46,3.472,13,1,0,3,0.075,NA,NA,NA,NA,"need",0,3.375,8.472
"2296","rock","milk",100,2.744,17,1,1,28,0.7,NA,NA,NA,NA,"milk",1,1.438,3.394
"2296","date","laugh",100,2.919,5,1,0,27,0.675,NA,NA,NA,NA,"kind",0,5.297,7.718
"2296","mill","feast",100,2.86,28,1,0,35,0.875,NA,NA,NA,NA,"feast",1,2.481,5.91
"2296","shrink","mafia",100,3.178,25,1,0,33,0.825,NA,NA,NA,NA,"process",0,1.727,4.286
"2296","risk","zero",73,22.283,36,1,1,18,0.45,NA,NA,NA,NA,"process",0,2.28,5.874
"2296","climax","saucer",54,2.757,8,1,0,7,0.175,NA,NA,NA,NA,"process",0,3.638,6.626
"2296","bias","sirloin",100,3.136,39,1,0,23,0.575,NA,NA,NA,NA,"climax",0,2.557,5.783
"2358","bacon","feud",50,5.313,16,1,1,14,0.35,NA,NA,NA,NA,"emperor",0,11.78,13.341
"2358","climax","saucer",67,2.758,1,1,1,26,0.65,NA,NA,NA,NA,"saucer",1,6.753,8.119
"2358","process","joker",34,4.663,30,1,1,8,0.2,NA,NA,NA,NA,"joker",1,12.161,13.759
"2358","biology","temper",41,1.784,39,1,0,11,0.275,NA,NA,NA,NA,"temper",1,5.37,7.12
"2358","date","laugh",73,1.79,12,1,0,31,0.775,NA,NA,NA,NA,"laugh",1,10.619,12.151
"2358","banner","glide",42,1.438,25,1,1,12,0.3,NA,NA,NA,NA,"glide",1,12.639,13.983
"2358","replace","roach",36,1.655,6,1,1,10,0.25,NA,NA,NA,NA,"mafia",0,13.07,14.447
"2358","copy","bedroom",65,2.111,38,1,0,25,0.625,NA,NA,NA,NA,"chowder",0,14.967,16.511
"2358","grip","beach",30,5.911,4,1,0,5,0.125,NA,NA,NA,NA,"beach",1,22.895,24.304
"2358","collect","loyalty",34,3.712,11,1,0,7,0.175,NA,NA,NA,NA,"loyalty",1,8.209,9.951
"2358","nerve","bumper",49,1.991,23,1,0,13,0.325,NA,NA,NA,NA,"worm",0,9.306,10.6
"2358","fan","feature",76,2.399,26,1,0,33,0.825,NA,NA,NA,NA,"feature",1,3.668,5.199
"2358","link","crisis",85,1.519,3,1,1,38,0.95,NA,NA,NA,NA,"crisis",1,10.313,11.824
"2358","bias","sirloin",63,9.974,21,1,0,23,0.575,NA,NA,NA,NA,"sirloin",1,9.996,12.255
"2358","anger","decay",32,2.103,29,1,1,6,0.15,NA,NA,NA,NA,"decay",1,5.703,6.903
"2358","glue","force",57,2.055,15,1,1,20,0.5,NA,NA,NA,NA,"force",1,4.54,5.855
"2358","smother","surgery",10,6.359,10,1,0,1,0.025,NA,NA,NA,NA,"temper",0,14.212,15.872
"2358","capital","figure",29,35.454,20,1,0,3,0.075,NA,NA,NA,NA,"figure",1,18.682,20.159
"2358","forest","knob",84,26.967,2,1,1,36,0.9,NA,NA,NA,NA,"knob",1,4.839,6.128
"2358","bullet","walkway",50,4.719,28,1,0,17,0.425,NA,NA,NA,NA,"beet",0,5.156,7.231
"2358","fee","chowder",36,6.079,37,1,0,9,0.225,NA,NA,NA,NA,"chowder",1,6.092,8.215
"2358","port","cinema",57,4.015,33,1,0,21,0.525,NA,NA,NA,NA,"cinema",1,8.195,9.968
"2358","knock","otter",50,1.775,31,1,0,15,0.375,NA,NA,NA,NA,"foam",0,9.327,12.64
"2358","calf","annoy",59,2.519,14,1,1,22,0.55,NA,NA,NA,NA,"annoy",1,4.736,6.479
"2358","mill","feast",77,1.783,9,1,0,35,0.875,NA,NA,NA,NA,"feast",1,6.678,7.664
"2358","need","faucet",73,1.614,36,1,1,30,0.75,NA,NA,NA,NA,"faucet",1,9.788,11.759
"2358","pea","bathtub",84,1.567,27,1,0,37,0.925,NA,NA,NA,NA,"bath tub",0,3.944,5.911
"2358","want","ascent",50,2.535,13,1,1,16,0.4,NA,NA,NA,NA,"ascend",0,5.51,7.535
"2358","plant","worm",77,15.983,8,1,1,34,0.85,NA,NA,NA,NA,"worm",1,6.2,7.743
"2358","remind","foam",51,3.463,5,1,1,18,0.45,NA,NA,NA,NA,"foam",1,12.782,14.103
"2358","visit","glove",68,1.967,19,1,0,27,0.675,NA,NA,NA,NA,"glove",1,11.939,13.255
"2358","risk","zero",73,2.679,7,1,1,32,0.8,NA,NA,NA,NA,"zero",1,5.15,6.408
"2358","prison","loaf",23,5.327,35,1,1,2,0.05,NA,NA,NA,NA,"loaf",1,5.37,6.631
"2358","caring","skirt",54,1.974,32,1,0,19,0.475,NA,NA,NA,NA,"cinema",0,6.011,7.383
"2358","find","clown",71,1.543,22,1,1,28,0.7,NA,NA,NA,NA,"clown",1,18.399,20.31
"2358","rock","milk",96,1.863,24,1,0,39,0.975,NA,NA,NA,NA,"milk",1,4.02,5.391
"2358","chicken","beet",100,2.102,18,1,1,40,1,NA,NA,NA,NA,"beet",1,4.186,4.984
"2358","bleach","ruin",65,1.504,34,1,1,24,0.6,NA,NA,NA,NA,"ruin",1,3.699,5.207
"2358","shrink","mafia",30,1.663,17,1,1,4,0.1,NA,NA,NA,NA,"mafia",1,12.756,14.056
"2358","pork","emperor",71,1.83,40,1,0,29,0.725,NA,NA,NA,NA,"feud",0,5.285,6.776
"2558","remind","foam",10,7.392,7,1,1,10,0.25,NA,NA,NA,NA,"gloves",0,4.089,5.981
"2558","bacon","feud",100,2.474,20,1,0,21,0.525,NA,NA,NA,NA,"emperor",0,3.214,5.025
"2558","want","ascent",1,6.971,3,1,0,1,0.025,NA,NA,NA,NA,"faucet",0,4.423,5.755
"2558","port","cinema",100,2.368,27,1,1,26,0.65,NA,NA,NA,NA,"cinema",1,1.189,2.659
"2558","plant","worm",70,3.26,8,1,0,13,0.325,NA,NA,NA,NA,"window",0,3.274,4.777
"2558","smother","surgery",100,1.626,19,1,0,29,0.725,NA,NA,NA,NA,"surgery",1,4.078,5.563
"2558","mill","feast",100,2.123,16,1,1,18,0.45,NA,NA,NA,NA,"loaf",0,4.85,7.517
"2558","banner","glide",1,3.147,35,1,1,2,0.05,NA,NA,NA,NA,"roast",0,2.446,3.605
"2558","knock","otter",96,3.331,34,1,0,15,0.375,NA,NA,NA,NA,"knob",0,4.412,5.612
"2558","capital","figure",60,8.915,10,1,0,11,0.275,NA,NA,NA,NA,"statue",0,4.344,8.587
"2558","fee","chowder",100,6.096,33,1,0,27,0.675,NA,NA,NA,NA,"chowder",1,4.076,6.501
"2558","link","crisis",100,3.315,37,1,0,33,0.825,NA,NA,NA,NA,"roast",0,8.279,9.948
"2558","forest","knob",100,1.517,31,1,0,23,0.575,NA,NA,NA,NA,"knob",1,2.256,3.334
"2558","need","faucet",1,7.626,17,1,1,4,0.1,NA,NA,NA,NA,"faucet",1,2.195,3.583
"2558","grip","beach",100,1.578,4,1,1,40,1,NA,NA,NA,NA,"beach",1,2.141,3.358
"2558","bleach","ruin",100,3.179,23,1,1,38,0.95,NA,NA,NA,NA,"ruin",1,1.161,3.068
"2558","caring","skirt",100,1.672,29,1,1,28,0.7,NA,NA,NA,NA,"skirt",1,1.747,4.521
"2558","shrink","mafia",100,2.787,2,1,0,35,0.875,NA,NA,NA,NA,"skirt",0,10.387,14.231
"2558","nerve","bumper",4,5.486,1,1,1,6,0.15,NA,NA,NA,NA,"calf",0,3.648,4.777
"2558","find","clown",1,4.14,11,1,0,3,0.075,NA,NA,NA,NA,"retrieve",0,4.579,6.061
"2558","climax","saucer",100,3.973,30,1,1,36,0.9,NA,NA,NA,NA,"saucer",1,2.4,3.805
"2558","visit","glove",100,2.602,22,1,1,30,0.75,NA,NA,NA,NA,"gloves",0,1.752,2.893
"2558","bias","sirloin",62,8.195,26,1,1,12,0.3,NA,NA,NA,NA,"meat",0,2.941,3.871
"2558","date","laugh",100,1.529,21,1,1,24,0.6,NA,NA,NA,NA,"laugh",1,1.377,2.66
"2558","pea","bathtub",100,1.664,9,1,1,22,0.55,NA,NA,NA,NA,"bathtub",1,1.789,4.92
"2558","copy","bedroom",100,2.505,12,1,0,31,0.775,NA,NA,NA,NA,"paste",0,1.888,2.97
"2558","process","joker",1,4.308,15,1,0,5,0.125,NA,NA,NA,NA,"link",0,1.615,3.345
"2558","calf","annoy",100,2.675,13,1,1,16,0.4,NA,NA,NA,NA,"annoy",1,1.025,2.259
"2558","fan","feature",9,4.568,28,1,1,8,0.2,NA,NA,NA,NA,"blade",0,1.414,2.547
"2558","risk","zero",4,4.446,6,1,0,7,0.175,NA,NA,NA,NA,"crisis",0,2.46,4.103
"2558","chicken","beet",100,2.17,39,1,0,39,0.975,NA,NA,NA,NA,"beet",1,5.378,9.172
"2558","prison","loaf",100,2.232,5,1,0,17,0.425,NA,NA,NA,NA,"loaf",1,1.343,3.999
"2558","glue","force",84,3.193,38,1,1,14,0.35,NA,NA,NA,NA,"force",1,3.455,5.098
"2558","pork","emperor",100,1.722,18,1,1,34,0.85,NA,NA,NA,NA,"emperor",1,1.276,2.982
"2558","collect","loyalty",10,7.468,32,1,0,9,0.225,NA,NA,NA,NA,"link",0,1.679,2.74
"2558","anger","decay",100,3.194,36,1,1,20,0.5,NA,NA,NA,NA,"roast",0,2.751,8.74
"2558","rock","milk",100,5.823,24,1,0,37,0.925,NA,NA,NA,NA,"link",0,6.766,8.23
"2558","bullet","walkway",100,1.827,14,1,1,32,0.8,NA,NA,NA,NA,"hallway",0,1.965,3.959
"2558","biology","temper",100,1.954,40,1,0,19,0.475,NA,NA,NA,NA,"fee",0,5.529,6.462
"2558","replace","roach",100,3.398,25,1,0,25,0.625,NA,NA,NA,NA,"ruin",0,4.041,5.298
"2670","collect","loyalty",1,3.772,15,1,0,5,0.125,NA,NA,NA,NA,"skip",0,3.438,6.205
"2670","glue","force",1,5.16,17,1,0,15,0.375,NA,NA,NA,NA,"force",1,7.255,9.68
"2670","shrink","mafia",35,3.873,6,1,0,39,0.975,NA,NA,NA,NA,"mafia",1,2.848,5
"2670","plant","worm",25,7.443,30,1,0,33,0.825,NA,NA,NA,NA,"skip",0,3.81,6.047
"2670","knock","otter",15,10.988,12,1,1,24,0.6,NA,NA,NA,NA,"otter",1,1.724,3.855
"2670","climax","saucer",1,2.993,14,1,1,10,0.25,NA,NA,NA,NA,"dish",0,1.743,3.849
"2670","need","faucet",1,4.581,10,1,0,17,0.425,NA,NA,NA,NA,"skip",0,4.051,5.961
"2670","fee","chowder",1,3.78,40,1,1,2,0.05,NA,NA,NA,NA,"skip",0,3.835,5.94
"2670","bullet","walkway",35,7.628,21,1,1,38,0.95,NA,NA,NA,NA,"skip",0,12.658,14.739
"2670","bias","sirloin",30,5.459,1,1,0,37,0.925,NA,NA,NA,NA,"skip",0,4.001,6.107
"2670","biology","temper",15,7.975,36,1,0,27,0.675,NA,NA,NA,NA,"decay",0,3.016,5.579
"2670","banner","glide",20,4.835,25,1,0,29,0.725,NA,NA,NA,NA,"flowing",0,4.512,10.322
"2670","link","crisis",10,5.437,5,1,1,22,0.55,NA,NA,NA,NA,"crisis",1,2.077,4.773
"2670","anger","decay",25,6.577,19,1,0,31,0.775,NA,NA,NA,NA,"biology",0,3.739,11.214
"2670","forest","knob",25,5.228,38,1,1,34,0.85,NA,NA,NA,NA,"knob",1,2.805,4.906
"2670","pea","bathtub",25,7.448,26,1,1,30,0.75,NA,NA,NA,NA,"skip",0,4.679,6.707
"2670","bacon","feud",1,9.434,35,1,1,18,0.45,NA,NA,NA,NA,"feud",1,1.124,3.519
"2670","nerve","bumper",1,4.011,7,1,0,13,0.325,NA,NA,NA,NA,"skip",0,3.395,5.245
"2670","port","cinema",1,6.073,20,1,0,1,0.025,NA,NA,NA,NA,"ship",0,25.743,27.91
"2670","process","joker",1,5.161,32,1,1,6,0.15,NA,NA,NA,NA,"skip",0,1.325,4.326
"2670","risk","zero",1,4.975,3,1,0,7,0.175,NA,NA,NA,NA,"skip",0,3.221,5.374
"2670","grip","beach",1,5.307,29,1,1,12,0.3,NA,NA,NA,NA,"skip",0,4.534,6.563
"2670","prison","loaf",1,4.032,31,1,1,4,0.1,NA,NA,NA,NA,"skip",0,3.02,5.375
"2670","find","clown",1,4.489,18,1,1,14,0.35,NA,NA,NA,NA,"skip",0,1.938,4.119
"2670","bleach","ruin",60,5.978,22,1,1,40,1,NA,NA,NA,NA,"ruin",1,1.288,3.787
"2670","visit","glove",1,3.048,2,1,0,3,0.075,NA,NA,NA,NA,"skip",0,2.237,4.444
"2670","chicken","beet",1,4.926,27,1,0,9,0.225,NA,NA,NA,NA,"skip",0,5.072,7.064
"2670","calf","annoy",15,8.346,11,1,1,26,0.65,NA,NA,NA,NA,"annoy",1,0.911,3.659
"2670","remind","foam",1,3.658,9,1,0,19,0.475,NA,NA,NA,NA,"skip",0,2.045,4.237
"2670","mill","feast",20,4.813,13,1,1,28,0.7,NA,NA,NA,NA,"feast",1,1.752,3.149
"2670","fan","feature",1,5.5,8,1,1,8,0.2,NA,NA,NA,NA,"skip",0,1.771,3.835
"2670","want","ascent",10,6.477,33,1,0,21,0.525,NA,NA,NA,NA,"skip",0,12.222,14.151
"2670","caring","skirt",1,5.411,34,1,1,16,0.4,NA,NA,NA,NA,"skip",0,6.329,8.744
"2670","smother","surgery",29,5.275,37,1,0,35,0.875,NA,NA,NA,NA,"surgery",1,3.223,8.758
"2670","copy","bedroom",30,5.097,24,1,1,36,0.9,NA,NA,NA,NA,"skip",0,5.145,7.625
"2670","replace","roach",25,7.647,39,1,1,32,0.8,NA,NA,NA,NA,"knee",0,5.546,7.54
"2670","capital","figure",5,5.766,23,1,1,20,0.5,NA,NA,NA,NA,"skip",0,5.025,6.041
"2670","rock","milk",15,7.468,28,1,0,25,0.625,NA,NA,NA,NA,"milk",1,2.416,3.349
"2670","date","laugh",1,4.205,4,1,0,11,0.275,NA,NA,NA,NA,"skip",0,4.152,5.007
"2670","pork","emperor",10,16.104,16,1,0,23,0.575,NA,NA,NA,NA,"emperor",1,2.375,3.816
"2687","link","crisis",1,2.883,5,1,0,14,0.35,NA,NA,NA,NA,"skip",0,2.16,5.115
"2687","calf","annoy",1,3.339,39,1,1,9,0.225,NA,NA,NA,NA,"skip",0,1.43,3.594
"2687","grip","beach",1,5.706,16,1,0,16,0.4,NA,NA,NA,NA,"skip",0,1.226,3.467
"2687","caring","skirt",1,3.086,13,1,1,29,0.725,NA,NA,NA,NA,"skip",0,1.267,3.432
"2687","nerve","bumper",1,3.183,25,1,1,5,0.125,NA,NA,NA,NA,"skip",0,1.302,3.41
"2687","fan","feature",1,3.41,18,1,0,10,0.25,NA,NA,NA,NA,"skip",0,1.21,3.339
"2687","anger","decay",1,4.633,32,1,1,25,0.625,NA,NA,NA,NA,"skip",0,1.28,3.438
"2687","process","joker",1,3.413,6,1,0,28,0.7,NA,NA,NA,NA,"skip",0,1.251,3.391
"2687","biology","temper",1,2.993,15,1,0,30,0.75,NA,NA,NA,NA,"skip",0,1.808,3.975
"2687","bacon","feud",1,3.106,29,1,1,21,0.525,NA,NA,NA,NA,"skip",0,1.669,4.338
"2687","pork","emperor",1,3.118,1,1,1,23,0.575,NA,NA,NA,NA,"skip",0,1.61,3.718
"2687","rock","milk",1,2.552,19,1,0,24,0.6,NA,NA,NA,NA,"skip",0,1.271,3.336
"2687","visit","glove",2,4.583,31,1,1,37,0.925,NA,NA,NA,NA,"skip",0,1.903,4.014
"2687","copy","bedroom",1,3.094,36,1,1,33,0.825,NA,NA,NA,NA,"skip",0,1.179,3.201
"2687","replace","roach",1,2.903,34,1,1,27,0.675,NA,NA,NA,NA,"skip",0,1.437,3.396
"2687","bleach","ruin",1,3.073,20,1,0,20,0.5,NA,NA,NA,NA,"skip",0,1.259,3.183
"2687","fee","chowder",1,2.962,33,1,0,8,0.2,NA,NA,NA,NA,"skip",0,1.955,4.173
"2687","find","clown",1,6.865,21,1,1,7,0.175,NA,NA,NA,NA,"skip",0,1.15,3.192
"2687","need","faucet",1,2.932,8,1,0,26,0.65,NA,NA,NA,NA,"skip",0,1.767,3.595
"2687","prison","loaf",100,4.373,4,1,0,40,1,NA,NA,NA,NA,"loaf",1,1.453,3.351
"2687","smother","surgery",1,6.978,9,1,1,1,0.025,NA,NA,NA,NA,"skip",0,10.531,12.597
"2687","port","cinema",1,3.487,2,1,0,34,0.85,NA,NA,NA,NA,"skip",0,1.262,3.242
"2687","mill","feast",1,3.205,7,1,0,18,0.45,NA,NA,NA,NA,"skip",0,1.228,3.735
"2687","chicken","beet",1,3.087,26,1,0,2,0.05,NA,NA,NA,NA,"skip",0,1.273,3.227
"2687","pea","bathtub",1,3.458,3,1,1,19,0.475,NA,NA,NA,NA,"skip",0,1.913,3.772
"2687","knock","otter",1,3.405,11,1,0,6,0.15,NA,NA,NA,NA,"skip",0,1.042,2.887
"2687","forest","knob",1,2.836,24,1,0,36,0.9,NA,NA,NA,NA,"skip",0,1.262,3.52
"2687","date","laugh",1,2.824,14,1,0,12,0.3,NA,NA,NA,NA,"skip",0,1.917,3.801
"2687","capital","figure",1,3.271,35,1,0,4,0.1,NA,NA,NA,NA,"skip",0,1.576,4.175
"2687","want","ascent",1,3.125,30,1,1,35,0.875,NA,NA,NA,NA,"skip",0,1.46,3.419
"2687","climax","saucer",1,3.154,40,1,0,32,0.8,NA,NA,NA,NA,"skip",0,1.239,3.196
"2687","plant","worm",1,4.176,23,1,1,15,0.375,NA,NA,NA,NA,"skip",0,1.162,3.05
"2687","risk","zero",1,3.132,28,1,1,31,0.775,NA,NA,NA,NA,"skip",0,1.293,3.395
"2687","bias","sirloin",1,2.991,17,1,1,17,0.425,NA,NA,NA,NA,"skip",0,1.164,3.161
"2687","shrink","mafia",100,5.684,27,1,0,38,0.95,NA,NA,NA,NA,"skip",0,1.039,3.026
"2687","glue","force",1,3.491,38,1,1,13,0.325,NA,NA,NA,NA,"skip",0,1.291,3.175
"2687","remind","foam",1,4.915,12,1,0,22,0.55,NA,NA,NA,NA,"skip",0,1.136,3.227
"2687","banner","glide",1,2.933,22,1,1,3,0.075,NA,NA,NA,NA,"skip",0,1.47,3.464
"2687","bullet","walkway",100,4.354,37,1,1,39,0.975,NA,NA,NA,NA,"walkway",1,1.112,3.918
"2687","collect","loyalty",1,3.111,10,1,1,11,0.275,NA,NA,NA,NA,"skip",0,1.453,3.724
"2812","need","faucet",15,2.519,14,1,0,19,0.475,NA,NA,NA,NA,"faucet",1,7.844,15.549
"2812","glue","force",69,2.831,1,1,1,36,0.9,NA,NA,NA,NA,"stick",0,19.702,21.597
"2812","bleach","ruin",1,2.703,32,1,1,4,0.1,NA,NA,NA,NA,"stain",0,19.438,21.919
"2812","nerve","bumper",19,2.15,25,1,1,22,0.55,NA,NA,NA,NA,"ending",0,26.455,28.647
"2812","banner","glide",1,2.694,38,1,0,1,0.025,NA,NA,NA,NA,"glide",1,19.95,21.582
"2812","capital","figure",65,9.27,5,1,1,34,0.85,NA,NA,NA,NA,"figure",1,5.607,7.911
"2812","replace","roach",15,2.087,30,1,1,18,0.45,NA,NA,NA,NA,"foam",0,22.439,23.967
"2812","grip","beach",43,5.918,24,1,0,29,0.725,NA,NA,NA,NA,"back",0,11.193,12.775
"2812","process","joker",1,8.063,9,1,1,2,0.05,NA,NA,NA,NA,"joker",1,5.16,6.535
"2812","shrink","mafia",8,8.238,31,1,1,10,0.25,NA,NA,NA,NA,"doctor",0,24.544,26.295
"2812","climax","saucer",11,12.094,15,1,0,13,0.325,NA,NA,NA,NA,"movie",0,18.567,20.279
"2812","fan","feature",8,10.287,22,1,0,9,0.225,NA,NA,NA,NA,"feature",1,11.47,13.422
"2812","forest","knob",10,7.903,6,1,1,12,0.3,NA,NA,NA,NA,"knob",1,6.687,8.136
"2812","chicken","beet",22,3.095,20,1,0,23,0.575,NA,NA,NA,NA,"bait",0,16.695,18.438
"2812","visit","glove",43,5.687,13,1,1,28,0.7,NA,NA,NA,NA,"glove",1,9.719,11.535
"2812","want","ascent",34,8.039,19,1,1,26,0.65,NA,NA,NA,NA,"ascent",1,1.838,3.743
"2812","pea","bathtub",12,2.981,10,1,0,15,0.375,NA,NA,NA,NA,"bathtub",1,12.055,15.703
"2812","date","laugh",60,2.727,27,1,0,33,0.825,NA,NA,NA,NA,"laugh",1,16.223,18.087
"2812","mill","feast",59,2.615,18,1,1,32,0.8,NA,NA,NA,NA,"forest",0,5.199,7.135
"2812","plant","worm",75,2.262,12,1,1,40,1,NA,NA,NA,NA,"worm",1,3.609,5.527
"2812","bacon","feud",1,2.055,39,1,0,5,0.125,NA,NA,NA,NA,"feud",1,5.479,7.023
"2812","calf","annoy",13,3.343,33,1,1,16,0.4,NA,NA,NA,NA,"annoy",1,15.8,17.759
"2812","link","crisis",70,6.43,3,1,0,37,0.925,NA,NA,NA,NA,"crisis",1,3.015,5.191
"2812","pork","emperor",11,2.136,16,1,1,14,0.35,NA,NA,NA,NA,"meat",0,20.207,21.783
"2812","knock","otter",28,21.324,7,1,0,25,0.625,NA,NA,NA,NA,"otter",1,4.039,5.319
"2812","port","cinema",41,4.367,29,1,0,27,0.675,NA,NA,NA,NA,"cinema",1,4.559,6.688
"2812","prison","loaf",1,8.776,26,1,1,6,0.15,NA,NA,NA,NA,"guard",0,5.016,6.495
"2812","fee","chowder",17,2.335,34,1,0,21,0.525,NA,NA,NA,NA,"chowder",1,16.656,18.479
"2812","anger","decay",53,7.615,11,1,0,31,0.775,NA,NA,NA,NA,"decay",1,10.919,12.591
"2812","remind","foam",4,2.647,35,1,1,8,0.2,NA,NA,NA,NA,"foam",1,4.367,5.927
"2812","risk","zero",9,2.871,17,1,0,11,0.275,NA,NA,NA,NA,"zero",1,3.272,5.112
"2812","collect","loyalty",27,2.254,2,1,1,24,0.6,NA,NA,NA,NA,"fee",0,10.04,11.264
"2812","smother","surgery",53,8.655,37,1,1,30,0.75,NA,NA,NA,NA,"surgery",1,2.966,5.095
"2812","rock","milk",69,2.927,36,1,0,35,0.875,NA,NA,NA,NA,"milk",1,2.096,3.584
"2812","find","clown",70,14.19,4,1,1,38,0.95,NA,NA,NA,NA,"clown",1,11.663,13.359
"2812","bullet","walkway",1,1.967,40,1,0,7,0.175,NA,NA,NA,NA,"walkway",1,4.75,7.062
"2812","biology","temper",15,3.149,21,1,0,17,0.425,NA,NA,NA,NA,"science",0,11.824,13.736
"2812","bias","sirloin",1,2.399,28,1,0,3,0.075,NA,NA,NA,NA,"sirloin",1,6.55,9.025
"2812","copy","bedroom",72,5.799,8,1,0,39,0.975,NA,NA,NA,NA,"bedroom",1,12.381,14.524
"2812","caring","skirt",16,3.255,23,1,1,20,0.5,NA,NA,NA,NA,"person",0,9.473,11.183
"2912","fan","feature",77,2.553,6,1,0,39,0.975,NA,NA,NA,NA,"force",0,10.195,11.436
"2912","smother","surgery",27,4.318,12,1,0,9,0.225,NA,NA,NA,NA,"glue",0,6.735,8.36
"2912","knock","otter",40,1.208,8,1,0,23,0.575,NA,NA,NA,NA,"door",0,5.279,6.423
"2912","bias","sirloin",30,1.208,23,1,0,13,0.325,NA,NA,NA,NA,"sirloin",1,2.558,4.567
"2912","bacon","feud",69,1.687,39,1,1,32,0.8,NA,NA,NA,NA,"water",0,8.463,17.224
"2912","bleach","ruin",23,1.511,29,1,1,4,0.1,NA,NA,NA,NA,"paper",0,1.816,2.92
"2912","rock","milk",35,2.655,27,1,1,18,0.45,NA,NA,NA,NA,"tree",0,2.768,4.512
"2912","risk","zero",57,2.162,19,1,1,26,0.65,NA,NA,NA,NA,"need",0,4.67,5.546
"2912","calf","annoy",26,4.32,33,1,0,7,0.175,NA,NA,NA,NA,"cow",0,2.252,3.214
"2912","prison","loaf",42,2.344,34,1,1,24,0.6,NA,NA,NA,NA,"space",0,1.393,2.512
"2912","pork","emperor",76,4.968,37,1,1,38,0.95,NA,NA,NA,NA,"chicken",0,4.855,6.615
"2912","caring","skirt",67,1.376,14,1,1,30,0.75,NA,NA,NA,NA,"sharing",0,5.335,6.88
"2912","glue","force",59,1.871,36,1,0,27,0.675,NA,NA,NA,NA,"force",1,1.878,3.816
"2912","bullet","walkway",31,2.871,13,1,0,15,0.375,NA,NA,NA,NA,"plank",0,7.289,8.98
"2912","process","joker",23,2.224,15,1,0,5,0.125,NA,NA,NA,NA,"joker",1,5.107,6.547
"2912","banner","glide",13,1.607,31,1,1,2,0.05,NA,NA,NA,NA,"plane",0,1.293,2.583
"2912","chicken","beet",64,1.736,11,1,1,28,0.7,NA,NA,NA,NA,"pork",0,1.725,2.991
"2912","need","faucet",68,3.991,40,1,0,31,0.775,NA,NA,NA,NA,"faucet",1,1.261,10.631
"2912","climax","saucer",36,1.703,21,1,0,19,0.475,NA,NA,NA,NA,"saucer",1,6.069,7.591
"2912","plant","worm",37,2.087,16,1,1,22,0.55,NA,NA,NA,NA,"tree",0,8.096,8.672
"2912","shrink","mafia",27,1.703,10,1,1,10,0.25,NA,NA,NA,NA,"wrap",0,1.367,2.511
"2912","find","clown",71,1.509,2,1,1,36,0.9,NA,NA,NA,NA,"need",0,7.837,8.727
"2912","fee","chowder",75,1.639,22,1,0,37,0.925,NA,NA,NA,NA,"feel",0,1.302,2.887
"2912","link","crisis",50,3.06,17,1,0,25,0.625,NA,NA,NA,NA,"space",0,8.047,9.095
"2912","capital","figure",26,1.358,5,1,1,8,0.2,NA,NA,NA,NA,"money",0,1.64,2.992
"2912","port","cinema",23,1.585,7,1,1,6,0.15,NA,NA,NA,NA,"ship",0,1.778,4.44
"2912","replace","roach",29,1.591,20,1,0,11,0.275,NA,NA,NA,NA,"want",0,2.905,11.943
"2912","anger","decay",70,2.296,25,1,1,34,0.85,NA,NA,NA,NA,"sad",0,1.398,1.871
"2912","grip","beach",36,2.123,1,1,0,21,0.525,NA,NA,NA,NA,"beach",1,4.246,5.688
"2912","date","laugh",70,1.5,35,1,0,33,0.825,NA,NA,NA,NA,"laugh",1,6.894,8.263
"2912","visit","glove",36,1.714,4,1,1,20,0.5,NA,NA,NA,NA,"see",0,6.375,6.879
"2912","biology","temper",30,1.935,24,1,1,14,0.35,NA,NA,NA,NA,"science",0,2.239,3.632
"2912","collect","loyalty",30,1.231,30,1,1,12,0.3,NA,NA,NA,NA,"remind",0,4.461,5.791
"2912","remind","foam",34,1.423,3,1,0,17,0.425,NA,NA,NA,NA,"foam",1,3.328,4.431
"2912","pea","bathtub",13,1.439,26,1,0,3,0.075,NA,NA,NA,NA,"bathtub",1,1.197,2.863
"2912","want","ascent",71,1.302,28,1,0,35,0.875,NA,NA,NA,NA,"ascent",1,7.119,12.04
"2912","copy","bedroom",80,1.095,32,1,1,40,1,NA,NA,NA,NA,"replace",0,1.662,4.471
"2912","nerve","bumper",65,1.392,9,1,0,29,0.725,NA,NA,NA,NA,"bumper",1,4.994,6.368
"2912","forest","knob",32,2.599,38,1,1,16,0.4,NA,NA,NA,NA,"water",0,3.557,4.391
"2912","mill","feast",5,1.655,18,1,0,1,0.025,NA,NA,NA,NA,"saw",0,2.327,2.727
"2983","copy","bedroom",80,2.063,26,1,0,36,0.9,NA,NA,NA,NA,"bedroom",1,9.405,11.655
"2983","port","cinema",26,2.303,10,1,0,4,0.1,NA,NA,NA,NA,"banner",0,8.532,10.089
"2983","pork","emperor",78,2.343,16,1,0,34,0.85,NA,NA,NA,NA,"bacon",0,8.109,10.699
"2983","rock","milk",71,2.101,11,1,1,27,0.675,NA,NA,NA,NA,"cliff",0,8.989,10.605
"2983","bleach","ruin",82,3.005,33,1,1,37,0.925,NA,NA,NA,NA,"bucket",0,7.483,9.427
"2983","mill","feast",30,2.654,39,1,0,10,0.25,NA,NA,NA,NA,"saw",0,2.117,3.08
"2983","link","crisis",28,3.029,7,1,1,7,0.175,NA,NA,NA,NA,"nerve",0,8.885,10.34
"2983","shrink","mafia",49,3.801,4,1,0,16,0.4,NA,NA,NA,NA,"grow",0,5.448,6.971
"2983","bacon","feud",73,2.198,27,1,0,28,0.7,NA,NA,NA,NA,"slice",0,1.996,3.445
"2983","grip","beach",36,1.869,25,1,0,14,0.35,NA,NA,NA,NA,"hard",0,8.455,9.678
"2983","calf","annoy",74,200.785,28,1,1,29,0.725,NA,NA,NA,NA,"knob",0,7.2,9.279
"2983","biology","temper",29,1.931,29,1,0,8,0.2,NA,NA,NA,NA,"school",0,2.441,4.562
"2983","capital","figure",64,2.031,14,1,0,22,0.55,NA,NA,NA,NA,"state",0,9.238,10.682
"2983","knock","otter",29,1.923,22,1,1,9,0.225,NA,NA,NA,NA,"bedrook",0,6.5,8.539
"2983","chicken","beet",75,3.029,37,1,1,31,0.775,NA,NA,NA,NA,"hawlway",0,9.288,11.448
"2983","bullet","walkway",33,1.745,18,1,1,13,0.325,NA,NA,NA,NA,"walkway",1,6.984,9.122
"2983","replace","roach",27,1.83,19,1,1,5,0.125,NA,NA,NA,NA,"bumper",0,9.142,10.955
"2983","need","faucet",63,1.969,8,1,1,21,0.525,NA,NA,NA,NA,"bumper",0,7.33,9.537
"2983","glue","force",19,2.158,15,1,1,1,0.025,NA,NA,NA,NA,"seal",0,5.84,7.515
"2983","pea","bathtub",83,1.775,12,1,1,39,0.975,NA,NA,NA,NA,"food",0,2.172,3.725
"2983","want","ascent",28,1.861,2,1,0,6,0.15,NA,NA,NA,NA,"need",0,2.974,4.249
"2983","forest","knob",75,2.211,13,1,0,30,0.75,NA,NA,NA,NA,"knob",1,1.957,8.716
"2983","remind","foam",77,2.615,40,1,1,33,0.825,NA,NA,NA,NA,"alarm",0,6.328,9.325
"2983","find","clown",31,2.313,36,1,1,11,0.275,NA,NA,NA,NA,"search",0,7.259,9.334
"2983","risk","zero",63,2.039,24,1,0,20,0.5,NA,NA,NA,NA,"glide",0,6.468,9.808
"2983","visit","glove",69,4.664,9,1,0,26,0.65,NA,NA,NA,NA,"cinema",0,6.78,9.63
"2983","bias","sirloin",25,2.711,35,1,1,3,0.075,NA,NA,NA,NA,"search",0,4.47,7.499
"2983","fan","feature",55,1.905,1,1,1,17,0.425,NA,NA,NA,NA,"play",0,1.81,3.445
"2983","fee","chowder",67,2.211,30,1,1,25,0.625,NA,NA,NA,NA,"charge",0,11.396,13.753
"2983","banner","glide",32,2.303,21,1,0,12,0.3,NA,NA,NA,NA,"glide",1,5.57,7.445
"2983","date","laugh",61,2.079,38,1,1,19,0.475,NA,NA,NA,NA,"like",0,10.468,11.882
"2983","smother","surgery",64,2.507,31,1,1,23,0.575,NA,NA,NA,NA,"choke",0,1.886,9.893
"2983","anger","decay",77,3.379,5,1,0,32,0.8,NA,NA,NA,NA,"rage",0,2.008,3.461
"2983","caring","skirt",82,1.845,3,1,0,38,0.95,NA,NA,NA,NA,"give",0,1.846,3.259
"2983","prison","loaf",79,2.033,17,1,1,35,0.875,NA,NA,NA,NA,"loaf",1,11.058,12.551
"2983","process","joker",43,2.133,23,1,1,15,0.375,NA,NA,NA,NA,"joker",1,3.971,7.897
"2983","plant","worm",64,2.181,34,1,0,24,0.6,NA,NA,NA,NA,"bedroom",0,5.429,7.485
"2983","climax","saucer",20,2.259,32,1,0,2,0.05,NA,NA,NA,NA,"finish",0,2.249,4.833
"2983","nerve","bumper",88,4.075,6,1,0,40,1,NA,NA,NA,NA,"bumper",1,4.84,6.783
"2983","collect","loyalty",59,4.065,20,1,0,18,0.45,NA,NA,NA,NA,"write",0,7.331,9.105
"3081","mill","feast",1,2.574,8,1,1,17,0.425,NA,NA,NA,NA,"skip",0,2.965,6.63
"3081","banner","glide",1,2.319,28,1,0,12,0.3,NA,NA,NA,NA,"skip",0,2.005,4.16
"3081","anger","decay",1,2.391,38,1,0,22,0.55,NA,NA,NA,NA,"skip",0,1.792,3.518
"3081","collect","loyalty",1,2.727,4,1,0,16,0.4,NA,NA,NA,NA,"skip",0,1.99,3.879
"3081","pork","emperor",1,3.207,21,1,1,7,0.175,NA,NA,NA,NA,"skip",0,1.676,3.88
"3081","capital","figure",1,1.807,1,1,1,27,0.675,NA,NA,NA,NA,"skip",0,2.081,4
"3081","glue","force",24,7.047,31,1,0,28,0.7,NA,NA,NA,NA,"force",1,2.391,3.936
"3081","fee","chowder",1,2.879,36,1,1,19,0.475,NA,NA,NA,NA,"skip",0,1.857,3.783
"3081","knock","otter",1,4.039,19,1,1,5,0.125,NA,NA,NA,NA,"skip",0,1.527,3.496
"3081","bleach","ruin",85,2.863,16,1,0,38,0.95,NA,NA,NA,NA,"destroy",0,4.396,7.056
"3081","prison","loaf",68,3.439,35,1,0,34,0.85,NA,NA,NA,NA,"loaf",1,2.039,3.487
"3081","pea","bathtub",56,4.816,11,1,1,29,0.725,NA,NA,NA,NA,"bathtub",1,1.356,4.4
"3081","find","clown",1,2.063,23,1,0,24,0.6,NA,NA,NA,NA,"skip",0,7.978,9.936
"3081","caring","skirt",1,2.44,26,1,1,11,0.275,NA,NA,NA,NA,"skip",0,1.518,3.407
"3081","visit","glove",1,2.744,9,1,0,8,0.2,NA,NA,NA,NA,"skip",0,1.728,3.544
"3081","risk","zero",94,3.149,15,1,0,40,1,NA,NA,NA,NA,"skip",0,3.234,4.949
"3081","biology","temper",63,3.144,33,1,1,33,0.825,NA,NA,NA,NA,"temper",1,1.451,2.966
"3081","smother","surgery",57,2.631,32,1,1,31,0.775,NA,NA,NA,NA,"surgery",1,1.218,3.28
"3081","copy","bedroom",1,2.423,18,1,0,18,0.45,NA,NA,NA,NA,"skip",0,1.471,3.048
"3081","forest","knob",1,2.239,27,1,1,25,0.625,NA,NA,NA,NA,"skip",0,1.431,3.007
"3081","nerve","bumper",1,2.59,22,1,1,9,0.225,NA,NA,NA,NA,"skip",0,2.124,3.663
"3081","rock","milk",92,5.143,24,1,1,39,0.975,NA,NA,NA,NA,"milk",1,1.41,2.975
"3081","plant","worm",1,2.99,40,1,0,6,0.15,NA,NA,NA,NA,"skip",0,1.854,3.719
"3081","process","joker",1,3.127,5,1,0,2,0.05,NA,NA,NA,NA,"skip",0,1.342,2.991
"3081","want","ascent",57,2.783,14,1,0,30,0.75,NA,NA,NA,NA,"ascent",1,12.556,20.303
"3081","replace","roach",1,3.015,34,1,0,4,0.1,NA,NA,NA,NA,"skip",0,1.964,3.927
"3081","bullet","walkway",1,2.495,2,1,0,20,0.5,NA,NA,NA,NA,"skip",0,1.19,2.663
"3081","port","cinema",1,3.887,29,1,1,3,0.075,NA,NA,NA,NA,"skip",0,1.27,3.454
"3081","bacon","feud",78,2.912,13,1,0,36,0.9,NA,NA,NA,NA,"skip",0,9.454,11.1
"3081","fan","feature",70,3.119,20,1,1,35,0.875,NA,NA,NA,NA,"feature",1,1.157,2.912
"3081","need","faucet",1,2.495,12,1,1,23,0.575,NA,NA,NA,NA,"skip",0,1.195,3.224
"3081","date","laugh",81,2.327,6,1,1,37,0.925,NA,NA,NA,NA,"laugh",1,1.742,3.488
"3081","link","crisis",1,2.367,7,1,0,14,0.35,NA,NA,NA,NA,"skip",0,1.273,2.912
"3081","grip","beach",1,5.807,3,1,1,1,0.025,NA,NA,NA,NA,"skip",0,2.219,3.904
"3081","chicken","beet",58,2.391,25,1,0,32,0.8,NA,NA,NA,NA,"pork",0,2.125,4.448
"3081","remind","foam",1,2.175,30,1,0,10,0.25,NA,NA,NA,NA,"skip",0,1.234,2.952
"3081","shrink","mafia",1,1.919,39,1,1,13,0.325,NA,NA,NA,NA,"skip",0,1.333,3
"3081","bias","sirloin",1,2.175,37,1,1,21,0.525,NA,NA,NA,NA,"skip",0,1.515,3.256
"3081","climax","saucer",1,3.479,17,1,1,15,0.375,NA,NA,NA,NA,"skip",0,1.244,3.176
"3081","calf","annoy",1,2.735,10,1,0,26,0.65,NA,NA,NA,NA,"skip",0,2.828,4.344
"3235","nerve","bumper",83,2.574,16,1,1,35,0.875,NA,NA,NA,NA,"bumper",1,42.482,46.147
"3235","collect","loyalty",87,2.209,5,1,1,37,0.925,NA,NA,NA,NA,"loyalty",1,5.03,8.535
"3235","chicken","beet",81,2.606,22,1,0,34,0.85,NA,NA,NA,NA,"beet",1,51.281,54.104
"3235","bias","sirloin",71,9.126,30,1,0,32,0.8,NA,NA,NA,NA,"sirloin ",0,7.746,12.687
"3235","plant","worm",57,23.448,27,1,0,26,0.65,NA,NA,NA,NA,"worm",1,8.996,11.823
"3235","calf","annoy",2,5.957,2,1,0,2,0.05,NA,NA,NA,NA,"annoy",1,5,7.887
"3235","capital","figure",52,1.844,23,1,0,20,0.5,NA,NA,NA,NA,"figure",1,7.694,11.575
"3235","visit","glove",57,2.991,31,1,1,25,0.625,NA,NA,NA,NA,"beach",0,2.731,9.039
"3235","bullet","walkway",52,5.862,18,1,0,18,0.45,NA,NA,NA,NA,"walkaway",0,55.629,59.881
"3235","banner","glide",52,2.574,20,1,1,19,0.475,NA,NA,NA,NA,"glide",1,3.933,6.472
"3235","date","laugh",42,2.536,39,1,1,11,0.275,NA,NA,NA,NA,"laugh",1,4.364,7.271
"3235","need","faucet",22,2.765,29,1,0,4,0.1,NA,NA,NA,NA,"remind",0,28.36,32.95
"3235","caring","skirt",28,2.158,11,1,1,5,0.125,NA,NA,NA,NA,"laugh",0,17.134,19.824
"3235","smother","surgery",56,3.037,6,1,0,24,0.6,NA,NA,NA,NA,"surgery",1,8.351,11.983
"3235","risk","zero",100,7.558,28,1,1,39,0.975,NA,NA,NA,NA,"zero",1,2.874,5.583
"3235","bleach","ruin",53,2.197,24,1,1,21,0.525,NA,NA,NA,NA,"joker",0,24.78,27.486
"3235","port","cinema",30,4.607,40,1,0,6,0.15,NA,NA,NA,NA,"prison",0,17.858,21.569
"3235","grip","beach",44,2.197,32,1,1,13,0.325,NA,NA,NA,NA,"beach",1,5.603,10.767
"3235","forest","knob",71,2.215,33,1,1,33,0.825,NA,NA,NA,NA,"knob",1,4.007,6.535
"3235","replace","roach",61,4.222,10,1,0,30,0.75,NA,NA,NA,NA,"roach",1,5.008,9.815
"3235","knock","otter",59,1.911,4,1,1,29,0.725,NA,NA,NA,NA,"otter",1,3.284,5.639
"3235","remind","foam",40,3.11,8,1,0,10,0.25,NA,NA,NA,NA,"foam",1,4.455,7.103
"3235","climax","saucer",84,2.078,13,1,0,36,0.9,NA,NA,NA,NA,"saucer",1,3.201,17.513
"3235","shrink","mafia",51,1.984,37,1,1,17,0.425,NA,NA,NA,NA,"figure",0,11.772,19.381
"3235","rock","milk",1,3.462,1,1,1,1,0.025,NA,NA,NA,NA,"milk",1,2.99,5.151
"3235","link","crisis",58,1.67,9,1,1,27,0.675,NA,NA,NA,NA,"crisis",1,2.035,5.487
"3235","copy","bedroom",17,2.285,14,1,1,3,0.075,NA,NA,NA,NA,"bedroom",1,3.101,13.183
"3235","bacon","feud",55,6.499,3,1,1,23,0.575,NA,NA,NA,NA,"feud",1,21.455,29.351
"3235","glue","force",46,4.497,26,1,0,14,0.35,NA,NA,NA,NA,"annoy",0,15.507,18.278
"3235","biology","temper",54,3.076,15,1,0,22,0.55,NA,NA,NA,NA,"temper",1,7.941,11.167
"3235","prison","loaf",100,3.086,36,1,0,40,1,NA,NA,NA,NA,"loaf",1,8.965,14.087
"3235","fan","feature",38,1.982,7,1,1,9,0.225,NA,NA,NA,NA,"feature",1,10.889,107.161
"3235","process","joker",50,2.784,12,1,0,16,0.4,NA,NA,NA,NA,"ascent",0,16.211,19.462
"3235","want","ascent",43,1.966,17,1,0,12,0.3,NA,NA,NA,NA,"csalm",0,13.558,16.518
"3235","pork","emperor",59,2.121,19,1,0,28,0.7,NA,NA,NA,NA,"emperor",1,3.903,10.999
"3235","pea","bathtub",68,1.993,34,1,1,31,0.775,NA,NA,NA,NA,"bathtub",1,3.201,8.871
"3235","find","clown",48,4.589,25,1,1,15,0.375,NA,NA,NA,NA,"clown",1,3.771,6.913
"3235","fee","chowder",35,1.767,38,1,1,7,0.175,NA,NA,NA,NA,"chowder",1,5.231,8.558
"3235","mill","feast",90,8.709,21,1,0,38,0.95,NA,NA,NA,NA,"feast",1,189.291,191.824
"3235","anger","decay",35,1.414,35,1,0,8,0.2,NA,NA,NA,NA,"decay",1,11.373,14.038
"3508","glue","force",85,5.799,38,1,0,33,0.825,NA,NA,NA,NA,"force",1,2.561,5.761
"3508","prison","loaf",5,22.471,32,1,1,28,0.7,NA,NA,NA,NA,"SKIP",0,2.559,4.915
"3508","capital","figure",5,16.421,39,1,0,27,0.675,NA,NA,NA,NA,"SKIP",0,13.283,14.796
"3508","mill","feast",1,43.085,6,1,1,22,0.55,NA,NA,NA,NA,"SKIP",0,2.023,2.404
"3508","visit","glove",1,3.776,21,1,1,14,0.35,NA,NA,NA,NA,"SKIP",0,3.403,3.906
"3508","shrink","mafia",90,4.759,4,1,1,36,0.9,NA,NA,NA,NA,"mafia",1,1.716,4.288
"3508","pea","bathtub",70,9.047,37,1,1,30,0.75,NA,NA,NA,NA,"SKIP",0,3.166,3.582
"3508","nerve","bumper",1,6.209,28,1,1,6,0.15,NA,NA,NA,NA,"SKIP",0,2.305,2.9
"3508","forest","knob",2,32.404,2,1,1,26,0.65,NA,NA,NA,NA,"SKIP",0,1.511,1.892
"3508","smother","surgery",1,64.339,24,1,0,11,0.275,NA,NA,NA,NA,"SKIP",0,3.379,3.774
"3508","want","ascent",1,3.015,5,1,0,21,0.525,NA,NA,NA,NA,"SKIP",0,4.661,5.04
"3508","chicken","beet",90,23.352,40,1,0,37,0.925,NA,NA,NA,NA,"SKIP",0,13.106,13.839
"3508","copy","bedroom",1,2.186,30,1,0,13,0.325,NA,NA,NA,NA,"SKIP",0,23.243,23.908
"3508","date","laugh",1,4.288,31,1,1,20,0.5,NA,NA,NA,NA,"SKIP",0,5.523,5.907
"3508","bleach","ruin",90,5.084,27,1,1,38,0.95,NA,NA,NA,NA,"ruin",1,2.036,5.53
"3508","caring","skirt",1,6.411,29,1,1,18,0.45,NA,NA,NA,NA,"SKIP",0,1.953,2.488
"3508","plant","worm",1,5.171,13,1,1,12,0.3,NA,NA,NA,NA,"SKIP",0,1.26,2.775
"3508","link","crisis",1,19.972,18,1,1,8,0.2,NA,NA,NA,NA,"SKIP",0,1.095,1.441
"3508","bacon","feud",1,2.377,11,1,0,25,0.625,NA,NA,NA,NA,"SKIP",0,3.581,5.589
"3508","port","cinema",1,32.728,36,1,0,15,0.375,NA,NA,NA,NA,"sirlion",0,2.801,5.318
"3508","risk","zero",1,11.707,33,1,0,19,0.475,NA,NA,NA,NA,"SKIP",0,20.944,22.014
"3508","remind","foam",1,5.638,35,1,0,7,0.175,NA,NA,NA,NA,"SKIP",0,3.163,3.806
"3508","biology","temper",98,3.612,12,1,1,40,1,NA,NA,NA,NA,"anger",0,1.556,2.783
"3508","replace","roach",80,13.721,23,1,1,32,0.8,NA,NA,NA,NA,"roach",1,1.263,2.946
"3508","knock","otter",1,20.305,10,1,1,10,0.25,NA,NA,NA,NA,"SKIP",0,13.028,13.545
"3508","banner","glide",1,15.303,8,1,1,24,0.6,NA,NA,NA,NA,"SKIP",0,1.138,1.502
"3508","find","clown",1,8.017,17,1,0,3,0.075,NA,NA,NA,NA,"SKIP",0,1.567,2.226
"3508","bias","sirloin",1,11.716,14,1,0,23,0.575,NA,NA,NA,NA,"SKIP",0,9.791,10.352
"3508","grip","beach",85,7.953,9,1,1,34,0.85,NA,NA,NA,NA,"beach",1,1.591,5.256
"3508","collect","loyalty",1,3.627,15,1,1,2,0.05,NA,NA,NA,NA,"SKIP",0,26.652,27.272
"3508","anger","decay",1,17.801,20,1,0,17,0.425,NA,NA,NA,NA,"SKIP",0,18.496,19.565
"3508","calf","annoy",1,13.815,3,1,0,1,0.025,NA,NA,NA,NA,"SKIP",0,8.2,8.799
"3508","fan","feature",60,11.141,34,1,0,29,0.725,NA,NA,NA,NA,"feature",1,1.533,2.962
"3508","bullet","walkway",95,102.244,1,1,0,39,0.975,NA,NA,NA,NA,"walkway",1,2.347,5.697
"3508","rock","milk",1,8.838,25,1,1,4,0.1,NA,NA,NA,NA,"glove",0,2.097,8.776
"3508","need","faucet",1,3.627,19,1,0,9,0.225,NA,NA,NA,NA,"SKIP",0,9.498,10.304
"3508","fee","chowder",80,7.333,26,1,0,31,0.775,NA,NA,NA,NA,"chowder",1,5.604,7.661
"3508","climax","saucer",1,3.827,7,1,0,5,0.125,NA,NA,NA,NA,"saucer",1,3.447,5.691
"3508","pork","emperor",90,5.441,16,1,0,35,0.875,NA,NA,NA,NA,"president",0,6.751,9.759
"3508","process","joker",1,2.194,22,1,1,16,0.4,NA,NA,NA,NA,"SKIP",0,6.802,7.736
"3767","climax","saucer",10,3.12,20,1,0,4,0.1,NA,NA,NA,NA,"skirt",0,3.577,5.212
"3767","bleach","ruin",1,2.591,3,1,1,1,0.025,NA,NA,NA,NA,"hair",0,2.517,3.876
"3767","collect","loyalty",78,3.647,37,1,0,36,0.9,NA,NA,NA,NA,"dig",0,4.937,6.146
"3767","remind","foam",14,3.902,4,1,0,8,0.2,NA,NA,NA,NA,"hacks",0,2.47,4.704
"3767","fan","feature",75,2.135,2,1,0,32,0.8,NA,NA,NA,NA,"fortune",0,1.51,3.079
"3767","glue","force",17,1.807,22,1,0,14,0.35,NA,NA,NA,NA,"bucket",0,2.57,4.267
"3767","want","ascent",16,2.479,15,1,1,13,0.325,NA,NA,NA,NA,"not",0,2.513,3.611
"3767","anger","decay",15,5.695,28,1,1,11,0.275,NA,NA,NA,NA,"face",0,1.605,2.36
"3767","capital","figure",23,3.959,12,1,0,20,0.5,NA,NA,NA,NA,"nature",0,5.117,7.383
"3767","plant","worm",77,2.198,13,1,1,35,0.875,NA,NA,NA,NA,"worm",1,1.554,2.871
"3767","grip","beach",18,2.855,38,1,1,15,0.375,NA,NA,NA,NA,"hang",0,1.463,2.418
"3767","mill","feast",64,1.895,30,1,1,29,0.725,NA,NA,NA,NA,"fork",0,2.117,3.472
"3767","rock","milk",13,2.902,29,1,1,7,0.175,NA,NA,NA,NA,"hole",0,1.701,5.683
"3767","port","cinema",81,2.006,17,1,0,38,0.95,NA,NA,NA,NA,"key",0,4.595,5.499
"3767","forest","knob",65,5.196,8,1,0,30,0.75,NA,NA,NA,NA,"moss",0,26.868,27.908
"3767","link","crisis",59,4.655,19,1,1,25,0.625,NA,NA,NA,NA,"chain",0,1.465,2.683
"3767","pork","emperor",10,4.053,9,1,1,5,0.125,NA,NA,NA,NA,"shoulder",0,2.001,4.57
"3767","bias","sirloin",15,1.863,7,1,0,12,0.3,NA,NA,NA,NA,"napkin",0,30.25,31.908
"3767","nerve","bumper",22,2.631,40,1,1,19,0.475,NA,NA,NA,NA,"brain",0,1.321,2.964
"3767","caring","skirt",77,2.232,25,1,0,34,0.85,NA,NA,NA,NA,"box",0,4.28,5.473
"3767","banner","glide",34,2.231,21,1,1,23,0.575,NA,NA,NA,NA,"flag",0,1.438,2.745
"3767","visit","glove",57,2.453,33,1,0,24,0.6,NA,NA,NA,NA,"paper",0,3.028,4.293
"3767","process","joker",7,2.142,36,1,1,3,0.075,NA,NA,NA,NA,"pretend",0,3.178,4.858
"3767","risk","zero",80,2.389,14,1,1,37,0.925,NA,NA,NA,NA,"zero",1,1.215,2.583
"3767","find","clown",25,2.831,18,1,1,21,0.525,NA,NA,NA,NA,"mind",0,4.106,5.182
"3767","bacon","feud",10,2.959,23,1,0,6,0.15,NA,NA,NA,NA,"toy",0,3.438,4.672
"3767","knock","otter",90,2.823,31,1,1,39,0.975,NA,NA,NA,NA,"hold",0,2.837,4.188
"3767","shrink","mafia",59,3.185,27,1,0,26,0.65,NA,NA,NA,NA,"fight",0,9.088,10.31
"3767","copy","bedroom",14,2.23,35,1,1,9,0.225,NA,NA,NA,NA,"pasta",0,1.868,4.07
"3767","fee","chowder",20,4.807,39,1,0,18,0.45,NA,NA,NA,NA,"feature",0,4.168,6.994
"3767","calf","annoy",19,12.432,1,1,1,17,0.425,NA,NA,NA,NA,"milk",0,1.841,3.117
"3767","replace","roach",1,1.71,5,1,0,2,0.05,NA,NA,NA,NA,"mine",0,1.669,6.005
"3767","chicken","beet",71,3.055,32,1,1,31,0.775,NA,NA,NA,NA,"bored",0,5.626,6.994
"3767","smother","surgery",75,2.07,26,1,1,33,0.825,NA,NA,NA,NA,"surgery",1,4.694,6.337
"3767","date","laugh",14,1.768,16,1,0,10,0.25,NA,NA,NA,NA,"joy",0,3.93,4.985
"3767","need","faucet",63,2.319,24,1,0,28,0.7,NA,NA,NA,NA,"not",0,9.783,10.706
"3767","biology","temper",19,2.215,10,1,0,16,0.4,NA,NA,NA,NA,"tree",0,2.993,3.878
"3767","pea","bathtub",96,3.519,11,1,0,40,1,NA,NA,NA,NA,"bathtub",1,1.814,4.91
"3767","bullet","walkway",60,2.663,6,1,1,27,0.675,NA,NA,NA,NA,"hangar",0,2.349,5.581
"3767","prison","loaf",26,3.319,34,1,0,22,0.55,NA,NA,NA,NA,"box",0,2.074,3.036
"3820","glue","force",76,2.243,14,1,1,32,0.8,NA,NA,NA,NA,"force",1,3.282,5.245
"3820","remind","foam",25,2.513,34,1,0,11,0.275,NA,NA,NA,NA,"foam",1,4.189,5.517
"3820","banner","glide",69,2.404,19,1,0,27,0.675,NA,NA,NA,NA,"glide",1,1.275,2.24
"3820","grip","beach",59,3.082,3,1,0,19,0.475,NA,NA,NA,NA,"fellow",0,8.267,9.525
"3820","need","faucet",15,7.426,11,1,0,3,0.075,NA,NA,NA,NA,"test",0,4.227,5.062
"3820","bleach","ruin",100,3.474,15,1,1,40,1,NA,NA,NA,NA,"ruin",1,1.121,3.103
"3820","want","ascent",55,2.136,31,1,0,17,0.425,NA,NA,NA,NA,"hint",0,3.53,4.405
"3820","mill","feast",81,2.181,17,1,1,36,0.9,NA,NA,NA,NA,"feast",1,1.103,2.741
"3820","bullet","walkway",29,6.11,16,1,1,12,0.3,NA,NA,NA,NA,"walk",0,1.649,2.383
"3820","plant","worm",15,2.875,22,1,1,4,0.1,NA,NA,NA,NA,"stairs",0,4.612,5.98
"3820","knock","otter",66,4.373,38,1,0,23,0.575,NA,NA,NA,NA,"otter",1,1.449,2.435
"3820","bias","sirloin",11,2.626,29,1,0,1,0.025,NA,NA,NA,NA,"sirloin",1,2.274,4.239
"3820","link","crisis",59,2.535,13,1,1,20,0.5,NA,NA,NA,NA,"crisis",1,1.86,12.282
"3820","anger","decay",71,6.993,8,1,1,28,0.7,NA,NA,NA,NA,"decay",1,1.834,3.681
"3820","visit","glove",51,3.03,27,1,1,14,0.35,NA,NA,NA,NA,"treat",0,4.235,5.227
"3820","bacon","feud",51,4.043,12,1,0,15,0.375,NA,NA,NA,NA,"first",0,6.868,7.834
"3820","chicken","beet",81,2.228,39,1,0,35,0.875,NA,NA,NA,NA,"beet",1,1.818,2.78
"3820","pork","emperor",53,8.479,35,1,1,16,0.4,NA,NA,NA,NA,"gate",0,4.842,5.583
"3820","forest","knob",12,4.362,30,1,1,2,0.05,NA,NA,NA,NA,"binder",0,4.886,9.794
"3820","pea","bathtub",85,2.48,26,1,0,37,0.925,NA,NA,NA,NA,"noise",0,6.8,12.392
"3820","climax","saucer",77,2.435,2,1,0,33,0.825,NA,NA,NA,NA,"saucer",1,1.74,3.205
"3820","collect","loyalty",75,2.813,9,1,0,31,0.775,NA,NA,NA,NA,"loyal",0,3.517,5.335
"3820","fan","feature",78,2.515,37,1,1,34,0.85,NA,NA,NA,NA,"feature",1,1.332,2.547
"3820","date","laugh",68,2.312,40,1,1,26,0.65,NA,NA,NA,NA,"laugh",1,1.18,2.008
"3820","smother","surgery",65,2.596,24,1,1,22,0.55,NA,NA,NA,NA,"surgeon",0,1.362,2.502
"3820","capital","figure",72,2.513,5,1,0,29,0.725,NA,NA,NA,NA,"grow",0,4.704,5.564
"3820","copy","bedroom",62,2.754,33,1,0,21,0.525,NA,NA,NA,NA,"bedroom",1,1.635,4.398
"3820","prison","loaf",73,2.252,10,1,1,30,0.75,NA,NA,NA,NA,"loaf",1,1.933,3.382
"3820","replace","roach",25,3.304,36,1,1,10,0.25,NA,NA,NA,NA,"mirror",0,4.923,5.849
"3820","shrink","mafia",59,2.389,23,1,1,18,0.45,NA,NA,NA,NA,"mafia",1,1.831,2.849
"3820","rock","milk",38,2.506,6,1,0,13,0.325,NA,NA,NA,NA,"milk",1,1.3,2.168
"3820","risk","zero",94,3.921,20,1,0,39,0.975,NA,NA,NA,NA,"zero",1,3.245,4.001
"3820","caring","skirt",19,10.471,4,1,0,5,0.125,NA,NA,NA,NA,"skirt",1,1.538,2.486
"3820","port","cinema",24,2.637,7,1,0,9,0.225,NA,NA,NA,NA,"museum",0,20.34,23.829
"3820","calf","annoy",67,2.529,21,1,0,25,0.625,NA,NA,NA,NA,"direct",0,2.62,3.563
"3820","find","clown",22,2.462,18,1,1,8,0.2,NA,NA,NA,NA,"under",0,6.704,7.868
"3820","biology","temper",22,2.621,25,1,0,7,0.175,NA,NA,NA,NA,"reform",0,3.755,4.789
"3820","nerve","bumper",85,2.436,1,1,1,38,0.95,NA,NA,NA,NA,"cast",0,7.966,8.788
"3820","fee","chowder",67,2.889,28,1,1,24,0.6,NA,NA,NA,NA,"earn",0,8.091,8.999
"3820","process","joker",20,2.413,32,1,1,6,0.15,NA,NA,NA,NA,"restrict",0,4.778,6.908
"3882","capital","figure",25,4.328,5,1,1,20,0.5,NA,NA,NA,NA,"state",0,5.39,9.756
"3882","date","laugh",13,2.253,1,1,0,15,0.375,NA,NA,NA,NA,"deer",0,5.196,6.721
"3882","fee","chowder",22,2.351,31,1,0,19,0.475,NA,NA,NA,NA,"summer",0,4.412,6.439
"3882","bullet","walkway",71,3.214,11,1,0,33,0.825,NA,NA,NA,NA,"walkway",1,1.811,4.898
"3882","plant","worm",72,2.456,20,1,1,36,0.9,NA,NA,NA,NA,"chair",0,2.338,8.46
"3882","mill","feast",67,3.087,33,1,1,32,0.8,NA,NA,NA,NA,"feast",1,2.263,4.795
"3882","pea","bathtub",27,3.031,2,1,0,21,0.525,NA,NA,NA,NA,"bathtub",1,5.287,16.426
"3882","bacon","feud",87,2.527,34,1,1,40,1,NA,NA,NA,NA,"hand",0,10.544,12.984
"3882","remind","foam",7,2.167,38,1,1,6,0.15,NA,NA,NA,NA,"gun",0,3.828,5.096
"3882","pork","emperor",71,2.623,22,1,1,34,0.85,NA,NA,NA,NA,"tree",0,3.247,4.883
"3882","smother","surgery",66,3.815,13,1,0,31,0.775,NA,NA,NA,NA,"purse",0,7.033,8.932
"3882","risk","zero",8,2.223,16,1,0,7,0.175,NA,NA,NA,NA,"rock",0,8.067,9.415
"3882","grip","beach",31,3.775,40,1,0,23,0.575,NA,NA,NA,NA,"sky",0,4.843,6.279
"3882","replace","roach",4,2.734,29,1,0,1,0.025,NA,NA,NA,NA,"work",0,10.931,16.95
"3882","bias","sirloin",10,2.262,4,1,1,10,0.25,NA,NA,NA,NA,"free",0,1.981,3.32
"3882","bleach","ruin",72,5.567,37,1,0,35,0.875,NA,NA,NA,NA,"shoe",0,4.915,6.272
"3882","shrink","mafia",33,2.264,8,1,1,24,0.6,NA,NA,NA,NA,"grass",0,6.116,7.446
"3882","chicken","beet",83,2.879,23,1,0,39,0.975,NA,NA,NA,NA,"scream",0,3.995,6.523
"3882","visit","glove",30,2.864,10,1,1,22,0.55,NA,NA,NA,NA,"street",0,6.916,8.41
"3882","collect","loyalty",12,2.695,30,1,0,13,0.325,NA,NA,NA,NA,"gather",0,6.149,7.599
"3882","anger","decay",22,7.161,36,1,0,17,0.425,NA,NA,NA,NA,"yellow",0,2.964,4.759
"3882","fan","feature",22,3.807,3,1,1,18,0.45,NA,NA,NA,NA,"cloud",0,7.534,9.343
"3882","climax","saucer",81,2.983,26,1,1,38,0.95,NA,NA,NA,NA,"ending",0,6.315,7.847
"3882","forest","knob",40,5.087,32,1,0,27,0.675,NA,NA,NA,NA,"moon",0,4.951,7.013
"3882","process","joker",4,31.735,14,1,1,2,0.05,NA,NA,NA,NA,"purple",0,4.699,6.791
"3882","banner","glide",13,3.319,6,1,1,14,0.35,NA,NA,NA,NA,"party",0,4.36,6.072
"3882","rock","milk",42,2.824,19,1,1,28,0.7,NA,NA,NA,NA,"radio",0,10.142,11.926
"3882","need","faucet",9,3.494,35,1,0,9,0.225,NA,NA,NA,NA,"dinner",0,5.523,6.999
"3882","nerve","bumper",56,2.111,18,1,1,30,0.75,NA,NA,NA,NA,"display",0,3.723,5.463
"3882","glue","force",75,2.343,25,1,0,37,0.925,NA,NA,NA,NA,"pig",0,3.219,4.511
"3882","copy","bedroom",7,2.622,27,1,0,5,0.125,NA,NA,NA,NA,"manager",0,12.28,13.839
"3882","port","cinema",39,2.542,17,1,1,26,0.65,NA,NA,NA,NA,"dock",0,6.738,7.959
"3882","prison","loaf",34,2.519,15,1,0,25,0.625,NA,NA,NA,NA,"mattress",0,7.485,9.799
"3882","link","crisis",10,2.423,39,1,0,11,0.275,NA,NA,NA,NA,"broom",0,4.114,7.111
"3882","biology","temper",6,2.543,9,1,1,4,0.1,NA,NA,NA,NA,"wood",0,7.023,8.246
"3882","find","clown",8,2.759,24,1,1,8,0.2,NA,NA,NA,NA,"roof",0,3.318,5.599
"3882","caring","skirt",4,2.51,7,1,0,3,0.075,NA,NA,NA,NA,"computer",0,6.93,9.23
"3882","calf","annoy",10,4.071,21,1,1,12,0.3,NA,NA,NA,NA,"crate",0,4.58,6.399
"3882","want","ascent",13,2.687,12,1,1,16,0.4,NA,NA,NA,NA,"phone",0,4.741,8.151
"3882","knock","otter",55,2.824,28,1,0,29,0.725,NA,NA,NA,NA,"surface",0,5.309,8.072
"4256","collect","loyalty",76,7.998,9,1,0,31,0.775,NA,NA,NA,NA,"don't know",0,37.856,40.645
"4256","need","faucet",23,2.755,10,1,1,2,0.05,NA,NA,NA,NA,"don't know",0,10.328,14.625
"4256","shrink","mafia",75,4.398,5,1,0,27,0.675,NA,NA,NA,NA,"don't know",0,9.192,21.892
"4256","knock","otter",35,3.228,2,1,0,13,0.325,NA,NA,NA,NA,"tree",0,7.246,10.158
"4256","copy","bedroom",34,2.969,17,1,1,10,0.25,NA,NA,NA,NA,"don't know",0,22.681,26.313
"4256","date","laugh",76,4.026,40,1,0,33,0.825,NA,NA,NA,NA,"laughter",0,4.77,16.38
"4256","forest","knob",75,3.386,35,1,0,29,0.725,NA,NA,NA,NA,"knob",1,6.29,10.957
"4256","pork","emperor",74,3.307,39,1,0,25,0.625,NA,NA,NA,NA,"emperor",1,2.127,5.051
"4256","visit","glove",39,5.388,15,1,0,15,0.375,NA,NA,NA,NA,"don't know",0,10.733,14.861
"4256","smother","surgery",31,2.946,31,1,1,6,0.15,NA,NA,NA,NA,"find",0,11.588,13.747
"4256","chicken","beet",29,3.307,37,1,1,4,0.1,NA,NA,NA,NA,"don't know",0,18.361,20.868
"4256","nerve","bumper",78,5.736,27,1,0,37,0.925,NA,NA,NA,NA,"bumper",1,6.379,8.493
"4256","biology","temper",75,2.766,12,1,1,28,0.7,NA,NA,NA,NA,"angry",0,2.61,5.927
"4256","bleach","ruin",78,20.069,30,1,1,36,0.9,NA,NA,NA,NA,"blemish",0,8.347,10.99
"4256","caring","skirt",61,3.014,29,1,1,18,0.45,NA,NA,NA,NA,"don't know",0,11.555,14.153
"4256","find","clown",36,3.666,11,1,1,14,0.35,NA,NA,NA,NA,"don't know",0,6.448,9.383
"4256","mill","feast",77,3.217,38,1,1,34,0.85,NA,NA,NA,NA,"feast",1,1.789,3.689
"4256","risk","zero",80,3.329,33,1,1,40,1,NA,NA,NA,NA,"zero",1,1.575,3.42
"4256","calf","annoy",79,3.993,7,1,0,39,0.975,NA,NA,NA,NA,"anoying",0,1.655,8.302
"4256","fee","chowder",67,6.974,22,1,1,20,0.5,NA,NA,NA,NA,"don't know",0,11.925,15.142
"4256","remind","foam",32,2.766,16,1,0,7,0.175,NA,NA,NA,NA,"foam",1,8.054,10.495
"4256","rock","milk",75,2.88,25,1,1,30,0.75,NA,NA,NA,NA,"milk",1,1.586,3.476
"4256","want","ascent",28,2.688,13,1,0,3,0.075,NA,NA,NA,NA,"ascent",1,5.232,7.582
"4256","capital","figure",63,4.106,14,1,0,19,0.475,NA,NA,NA,NA,"figure",1,3.23,7.088
"4256","climax","saucer",31,3.183,3,1,0,5,0.125,NA,NA,NA,NA,"don't know",0,5.739,8.617
"4256","link","crisis",72,3.982,19,1,0,21,0.525,NA,NA,NA,NA,"crisis",1,3.759,10.912
"4256","bacon","feud",33,3.509,23,1,0,9,0.225,NA,NA,NA,NA,"feud",1,2.937,4.905
"4256","bullet","walkway",40,4.532,4,1,1,16,0.4,NA,NA,NA,NA,"boardwalk",0,1.822,4.757
"4256","fan","feature",74,3.262,28,1,1,24,0.6,NA,NA,NA,NA,"feature",1,1.834,3.96
"4256","process","joker",35,3.385,18,1,1,12,0.3,NA,NA,NA,NA,"don't know",0,3.701,6.714
"4256","anger","decay",34,2.767,1,1,0,11,0.275,NA,NA,NA,NA,"decay",1,11.104,15.457
"4256","banner","glide",75,4.016,36,1,1,26,0.65,NA,NA,NA,NA,"streaming",0,8.81,11.632
"4256","bias","sirloin",32,4.139,34,1,1,8,0.2,NA,NA,NA,NA,"don't know",0,3.691,6.063
"4256","replace","roach",20,2.531,32,1,0,1,0.025,NA,NA,NA,NA,"don't know",0,8.528,11.228
"4256","port","cinema",59,4.41,20,1,0,17,0.425,NA,NA,NA,NA,"cinema",1,5.108,7.898
"4256","grip","beach",76,2.485,21,1,1,32,0.8,NA,NA,NA,NA,"beach",1,2.015,4.004
"4256","glue","force",74,3.048,6,1,0,23,0.575,NA,NA,NA,NA,"force",1,1.935,3.837
"4256","prison","loaf",74,2.677,26,1,1,22,0.55,NA,NA,NA,NA,"loaf",1,1.71,3.543
"4256","plant","worm",78,3.026,8,1,1,38,0.95,NA,NA,NA,NA,"worm",1,1.486,3.397
"4256","pea","bathtub",77,4.319,24,1,0,35,0.875,NA,NA,NA,NA,"bathtub",1,1.496,4.083
"4319","port","cinema",75,5.567,7,1,0,6,0.15,NA,NA,NA,NA,"cinema",1,7.413,10.044
"4319","pea","bathtub",93,4.207,25,1,1,29,0.725,NA,NA,NA,NA,"bathtub",1,6.795,7.463
"4319","collect","loyalty",96,7.107,16,1,1,37,0.925,NA,NA,NA,NA,"loyalty",1,8.339,8.677
"4319","mill","feast",92,6.167,3,1,0,26,0.65,NA,NA,NA,NA,"feast",1,13.375,15.712
"4319","visit","glove",87,7.416,38,1,1,19,0.475,NA,NA,NA,NA,"glove",1,8.031,9.932
"4319","glue","force",58,6.904,15,1,1,1,0.025,NA,NA,NA,NA,"force",1,7.675,9.326
"4319","plant","worm",87,6.525,6,1,0,18,0.45,NA,NA,NA,NA,"worm",1,6.502,8.223
"4319","shrink","mafia",86,3.692,12,1,1,17,0.425,NA,NA,NA,NA,"mafia",1,6.125,7.615
"4319","chicken","beet",95,9.497,20,1,1,35,0.875,NA,NA,NA,NA,"best",0,5.443,8.434
"4319","remind","foam",92,10.315,39,1,1,25,0.625,NA,NA,NA,NA,"form",0,6.704,8.246
"4319","process","joker",84,8.693,26,1,1,13,0.325,NA,NA,NA,NA,"joker",1,8.709,9.293
"4319","find","clown",96,9,10,1,0,36,0.9,NA,NA,NA,NA,"grip",0,8.529,8.88
"4319","fan","feature",82,4.183,36,1,1,11,0.275,NA,NA,NA,NA,"climax",0,10.809,11.093
"4319","risk","zero",61,5.376,2,1,0,2,0.05,NA,NA,NA,NA,"zero",1,5.018,7.491
"4319","bullet","walkway",67,6.696,8,1,0,4,0.1,NA,NA,NA,NA,"walkway",1,7.354,7.695
"4319","copy","bedroom",94,6.25,27,1,1,31,0.775,NA,NA,NA,NA,"bedroom",1,6.442,6.765
"4319","forest","knob",93,5.68,34,1,1,27,0.675,NA,NA,NA,NA,"knob",1,8.845,9.09
"4319","fee","chowder",86,7.575,40,1,0,16,0.4,NA,NA,NA,NA,"chowder",1,10.453,10.768
"4319","capital","figure",82,50.831,13,1,0,12,0.3,NA,NA,NA,NA,"figure",1,7.039,7.329
"4319","date","laugh",98,5.579,21,1,1,39,0.975,NA,NA,NA,NA,"laugh",1,8.679,8.992
"4319","replace","roach",75,5.68,30,1,1,7,0.175,NA,NA,NA,NA,"roach",1,6.284,6.547
"4319","want","ascent",94,12.434,9,1,0,32,0.8,NA,NA,NA,NA,"ascent",1,8.592,8.903
"4319","bacon","feud",86,28.998,23,1,1,15,0.375,NA,NA,NA,NA,"fee",0,11.214,11.813
"4319","rock","milk",95,4.758,4,1,0,34,0.85,NA,NA,NA,NA,"saucer",0,8.04,9.975
"4319","smother","surgery",77,5.576,1,1,0,8,0.2,NA,NA,NA,NA,"nerve",0,19.99,20.311
"4319","nerve","bumper",67,5.552,11,1,1,3,0.075,NA,NA,NA,NA,"bumper",1,5.175,5.451
"4319","anger","decay",96,5.237,22,1,0,38,0.95,NA,NA,NA,NA,"decay",1,8.043,8.355
"4319","link","crisis",89,3.553,35,1,0,22,0.55,NA,NA,NA,NA,"crisis",1,10.691,10.921
"4319","bias","sirloin",93,8.455,32,1,0,30,0.75,NA,NA,NA,NA,"joker",0,5.021,5.573
"4319","need","faucet",80,8.122,33,1,0,10,0.25,NA,NA,NA,NA,"laugh",0,9.05,9.316
"4319","grip","beach",98,9.003,31,1,0,40,1,NA,NA,NA,NA,"beach",1,7.735,8.107
"4319","climax","saucer",89,4.785,29,1,1,21,0.525,NA,NA,NA,NA,"saucer",1,7.646,7.965
"4319","biology","temper",91,9.061,19,1,0,24,0.6,NA,NA,NA,NA,"temper",1,26.031,26.281
"4319","pork","emperor",79,8.447,17,1,1,9,0.225,NA,NA,NA,NA,"emperor",1,37.775,38.793
"4319","knock","otter",85,6.782,18,1,0,14,0.35,NA,NA,NA,NA,"otter",1,8.971,9.338
"4319","prison","loaf",89,4.641,5,1,1,23,0.575,NA,NA,NA,NA,"loaf",1,8.915,9.347
"4319","banner","glide",93,8.01,28,1,0,28,0.7,NA,NA,NA,NA,"glide",1,8.583,8.871
"4319","calf","annoy",71,6.446,24,1,1,5,0.125,NA,NA,NA,NA,"annoy",1,6.603,6.878
"4319","caring","skirt",94,5.148,37,1,1,33,0.825,NA,NA,NA,NA,"skirt",1,7.82,8.175
"4319","bleach","ruin",89,5.428,14,1,0,20,0.5,NA,NA,NA,NA,"ruin",1,7.188,7.537
"4599","fan","feature",26,2.509,40,1,1,5,0.125,NA,NA,NA,NA,"table",0,3.14,5.06
"4599","climax","saucer",38,2.381,20,1,1,23,0.575,NA,NA,NA,NA,"person",0,1.974,3.884
"4599","visit","glove",23,1.72,34,1,1,3,0.075,NA,NA,NA,NA,"soon",0,1.649,3.717
"4599","shrink","mafia",55,3.349,24,1,0,26,0.65,NA,NA,NA,NA,"government ",0,6.17,10.118
"4599","mill","feast",27,2.416,30,1,0,8,0.2,NA,NA,NA,NA,"farm",0,3.733,5.153
"4599","prison","loaf",61,1.958,39,1,1,31,0.775,NA,NA,NA,NA,"system",0,3.229,4.896
"4599","link","crisis",27,2.288,36,1,1,7,0.175,NA,NA,NA,NA,"person",0,1.994,10.464
"4599","need","faucet",23,2.147,6,1,0,2,0.05,NA,NA,NA,NA,"fan",0,4.973,6.63
"4599","anger","decay",72,1.921,1,1,1,39,0.975,NA,NA,NA,NA,"rage",0,3.106,4.578
"4599","collect","loyalty",33,2.359,21,1,0,16,0.4,NA,NA,NA,NA,"tax",0,2.643,5.418
"4599","smother","surgery",26,3.459,9,1,0,6,0.15,NA,NA,NA,NA,"struggle",0,2.434,5.988
"4599","knock","otter",30,4.325,12,1,1,13,0.325,NA,NA,NA,NA,"wood",0,1.2,3.883
"4599","copy","bedroom",28,4.372,16,1,1,9,0.225,NA,NA,NA,NA,"ruin",0,4.09,5.878
"4599","pea","bathtub",70,1.702,26,1,1,37,0.925,NA,NA,NA,NA,"plate",0,1.455,3.08
"4599","calf","annoy",82,1.924,27,1,0,40,1,NA,NA,NA,NA,"veel",0,4.983,8.242
"4599","want","ascent",22,1.831,28,1,1,1,0.025,NA,NA,NA,NA,"person",0,3.45,7.644
"4599","nerve","bumper",35,3.1,25,1,0,20,0.5,NA,NA,NA,NA,"bone",0,2.003,5.525
"4599","find","clown",25,3.291,38,1,0,4,0.1,NA,NA,NA,NA,"place",0,4.35,6.67
"4599","capital","figure",62,2.752,3,1,0,32,0.8,NA,NA,NA,NA,"now",0,2.926,4.72
"4599","bullet","walkway",57,3.811,7,1,0,28,0.7,NA,NA,NA,NA,"heart",0,2.191,4.261
"4599","forest","knob",62,2.122,19,1,1,33,0.825,NA,NA,NA,NA,"trees",0,2.253,4.019
"4599","caring","skirt",34,1.611,5,1,1,19,0.475,NA,NA,NA,NA,"heart",0,5.545,7.062
"4599","port","cinema",29,1.687,31,1,1,11,0.275,NA,NA,NA,NA,"ship",0,1.076,3.373
"4599","banner","glide",33,1.988,10,1,1,17,0.425,NA,NA,NA,NA,"paper",0,2.241,3.969
"4599","bias","sirloin",31,2.274,37,1,1,15,0.375,NA,NA,NA,NA,"opinion ",0,3.477,6.03
"4599","remind","foam",30,2.597,23,1,0,14,0.35,NA,NA,NA,NA,"revere ",0,3.373,11.215
"4599","bacon","feud",64,2.762,22,1,1,35,0.875,NA,NA,NA,NA,"feud",1,2.703,4.129
"4599","date","laugh",29,2.349,15,1,0,10,0.25,NA,NA,NA,NA,"person",0,3.411,5.06
"4599","pork","emperor",64,2.313,13,1,0,34,0.85,NA,NA,NA,NA,"dictator ",0,5.681,9.484
"4599","bleach","ruin",70,2.621,17,1,0,36,0.9,NA,NA,NA,NA,"ruin",1,1.314,2.657
"4599","grip","beach",29,2.002,2,1,0,12,0.3,NA,NA,NA,NA,"rope",0,4.135,6.044
"4599","risk","zero",41,1.75,35,1,1,25,0.625,NA,NA,NA,NA,"taker",0,1.826,5.238
"4599","rock","milk",56,1.908,29,1,1,27,0.675,NA,NA,NA,NA,"milk",1,1.085,2.611
"4599","fee","chowder",35,2.538,4,1,1,21,0.525,NA,NA,NA,NA,"cost",0,2.342,5.088
"4599","plant","worm",37,2.057,11,1,0,22,0.55,NA,NA,NA,NA,"mill",0,3.34,6.394
"4599","chicken","beet",71,2.102,18,1,0,38,0.95,NA,NA,NA,NA,"beet",1,1.537,3.558
"4599","replace","roach",33,2.111,8,1,0,18,0.45,NA,NA,NA,NA,"revive ",0,1.263,6.706
"4599","biology","temper",60,2.606,33,1,0,30,0.75,NA,NA,NA,NA,"animal",0,1.694,3.24
"4599","glue","force",58,3.067,14,1,1,29,0.725,NA,NA,NA,NA,"sticky",0,4.442,6.323
"4599","process","joker",40,2.718,32,1,0,24,0.6,NA,NA,NA,NA,"person",0,3.479,5.266
"4624","bullet","walkway",96,6.569,10,1,1,32,0.8,NA,NA,NA,NA,"walkway",1,2.308,3.462
"4624","replace","roach",80,7.327,39,1,1,26,0.65,NA,NA,NA,NA,"roach",1,4.034,5.045
"4624","port","cinema",88,5.404,22,1,1,28,0.7,NA,NA,NA,NA,"cinema",1,9.088,13.011
"4624","pork","emperor",89,11.562,40,1,0,29,0.725,NA,NA,NA,NA,"emperor",1,1.537,3.261
"4624","calf","annoy",79,8.456,12,1,1,24,0.6,NA,NA,NA,NA,"annoy",1,1.077,1.923
"4624","fan","feature",15,13.795,15,1,1,8,0.2,NA,NA,NA,NA,"feature",1,10.754,13.763
"4624","plant","worm",100,4.768,19,1,0,39,0.975,NA,NA,NA,NA,"worm",1,1.105,1.71
"4624","visit","glove",60,8.235,18,1,0,13,0.325,NA,NA,NA,NA,"glove",1,2.562,3.375
"4624","biology","temper",4,4.194,35,1,1,2,0.05,NA,NA,NA,NA,"process",0,1.344,2.355
"4624","link","crisis",4,12.508,17,1,0,3,0.075,NA,NA,NA,NA,"crisis",1,7.4,12.111
"4624","glue","force",93,4.36,33,1,1,30,0.75,NA,NA,NA,NA,"force",1,2.501,3.283
"4624","want","ascent",62,7.937,21,1,1,16,0.4,NA,NA,NA,NA,"ascend",0,4.547,8.385
"4624","smother","surgery",75,26.604,13,1,0,21,0.525,NA,NA,NA,NA,"surgery",1,9.824,10.948
"4624","bleach","ruin",71,14.277,28,1,0,19,0.475,NA,NA,NA,NA,"ruin",1,4.427,5.278
"4624","remind","foam",62,11.899,2,1,0,15,0.375,NA,NA,NA,NA,"foam",1,3.702,4.397
"4624","mill","feast",80,3.712,24,1,0,27,0.675,NA,NA,NA,NA,"feast",1,1.508,2.692
"4624","date","laugh",75,12.306,5,1,1,20,0.5,NA,NA,NA,NA,"laugh",1,1.175,1.815
"4624","bacon","feud",100,2.5,20,1,1,38,0.95,NA,NA,NA,NA,"feud",1,0.945,2.484
"4624","need","faucet",100,3.067,7,1,0,37,0.925,NA,NA,NA,NA,"faucet",1,1.562,2.565
"4624","prison","loaf",99,4.638,37,1,0,33,0.825,NA,NA,NA,NA,"loaf",1,1.162,1.913
"4624","climax","saucer",9,24.192,25,1,1,6,0.15,NA,NA,NA,NA,"crisis",0,1.707,2.984
"4624","chicken","beet",62,21.505,27,1,1,14,0.35,NA,NA,NA,NA,"bet",0,1.847,3.218
"4624","bias","sirloin",78,5.98,34,1,0,23,0.575,NA,NA,NA,NA,"beach",0,5.941,6.955
"4624","anger","decay",70,6.653,30,1,1,18,0.45,NA,NA,NA,NA,"decay",1,1.456,2.296
"4624","fee","chowder",63,10.071,29,1,0,17,0.425,NA,NA,NA,NA,"feature",0,1.423,3.869
"4624","rock","milk",10,19.896,8,1,0,7,0.175,NA,NA,NA,NA,"loyalty",0,12.933,15.633
"4624","capital","figure",15,3.433,32,1,0,9,0.225,NA,NA,NA,NA,"bedroom",0,7.618,9.426
"4624","grip","beach",7,19.886,1,1,0,5,0.125,NA,NA,NA,NA,"beach",1,3.979,4.691
"4624","process","joker",5,28.221,38,1,1,4,0.1,NA,NA,NA,NA,"joker",1,3.139,5.378
"4624","caring","skirt",41,5.638,14,1,1,10,0.25,NA,NA,NA,NA,"skirt",1,1.265,1.905
