"subn","word1","word2","trial","list","jol","jolrt","jolrank","jolrankp","practice","honor","choice","choicert","restudyresp","restudyacc","restudyrtfirst","restudyrt"
"1055","process","joker",1,1,25,3.415,18,0.45,1,1,1,1.566,"dog",0,NA,62.133
"1055","prison","loaf",2,1,71,7.157,35,0.875,1,0,0,1.117,"loaf",1,NA,14.277
"1055","nerve","bumper",3,1,22,4.171,15,0.375,0,1,0,5.869,"",NA,NA,NA
"1055","bleach","ruin",4,1,100,6.454,40,1,1,1,1,1.341,"ruin",1,NA,15.116
"1055","want","ascent",5,1,26,9.916,19,0.475,0,1,0,1.318,"",NA,NA,NA
"1055","biology","temper",6,1,17,3.02,10,0.25,0,0,1,8.072,"",NA,NA,NA
"1055","pea","bathtub",7,1,22,3.991,16,0.4,0,1,0,1.604,"",NA,NA,NA
"1055","fee","chowder",8,1,16,2.743,8,0.2,0,0,1,1.31,"",NA,NA,NA
"1055","calf","annoy",9,1,49,45.151,31,0.775,1,0,0,1.206,"cat",0,NA,32.479
"1055","shrink","mafia",10,1,31,2.876,23,0.575,1,1,1,7.255,"no",0,NA,18.735
"1055","pork","emperor",11,1,74,3.252,37,0.925,1,0,0,0.872,"belly",0,NA,17.541
"1055","capital","figure",12,1,73,4.04,36,0.9,1,0,0,0.933,"figure",1,NA,13.66
"1055","caring","skirt",13,1,11,4.035,2,0.05,0,0,1,6.829,"",NA,NA,NA
"1055","date","laugh",14,1,67,9.719,34,0.85,1,0,0,1.797,"laugh",1,NA,23.207
"1055","glue","force",15,1,15,4.11,3,0.075,0,0,1,7.631,"",NA,NA,NA
"1055","rock","milk",16,1,58,3.087,33,0.825,1,1,1,4.216,"zero",0,NA,20.87
"1055","risk","zero",17,1,36,3.508,27,0.675,0,1,0,1.07,"",NA,NA,NA
"1055","link","crisis",18,1,18,2.845,11,0.275,0,1,0,1.533,"",NA,NA,NA
"1055","smother","surgery",19,1,16,8.245,7,0.175,0,0,1,1.045,"",NA,NA,NA
"1055","banner","glide",20,1,11,17.67,1,0.025,0,0,1,3.811,"",NA,NA,NA
"1055","plant","worm",21,1,79,2.814,39,0.975,1,0,0,1.06,"dig",0,NA,37.717
"1055","remind","foam",22,1,20,3.116,14,0.35,1,1,1,1.624,"saucer",0,NA,19.131
"1055","anger","decay",23,1,52,13.313,32,0.8,1,0,0,13.139,"happy",0,NA,9.514
"1055","fan","feature",24,1,34,3.077,26,0.65,0,1,0,7.214,"",NA,NA,NA
"1055","visit","glove",25,1,36,3.277,28,0.7,1,0,0,0.799,"try",0,NA,16.881
"1055","bullet","walkway",26,1,20,12.573,13,0.325,1,1,1,1.198,"bite",0,NA,7.104
"1055","find","clown",27,1,16,3.376,5,0.125,0,1,0,8.109,"",NA,NA,NA
"1055","port","cinema",28,1,78,5.076,38,0.95,1,0,0,1.23,"cinema",1,NA,17.811
"1055","collect","loyalty",29,1,34,4.763,25,0.625,0,1,0,2.328,"",NA,NA,NA
"1055","chicken","beet",30,1,41,5.526,30,0.75,1,1,1,1.741,"beet",1,NA,20.982
"1055","bacon","feud",31,1,17,4.671,9,0.225,0,0,1,2.128,"",NA,NA,NA
"1055","copy","bedroom",32,1,22,3.797,17,0.425,1,1,1,1.23,"bedroom",1,NA,24.035
"1055","forest","knob",33,1,26,4.91,20,0.5,1,1,1,3.526,"tree",0,NA,11.958
"1055","need","faucet",34,1,16,3.503,6,0.15,0,0,1,1.135,"",NA,NA,NA
"1055","bias","sirloin",35,1,30,10.637,22,0.55,0,1,0,0.997,"",NA,NA,NA
"1055","mill","feast",36,1,37,4.278,29,0.725,1,0,0,2.749,"no",0,NA,28.761
"1055","climax","saucer",37,1,15,8.309,4,0.1,0,0,1,1.39,"",NA,NA,NA
"1055","grip","beach",38,1,32,12.78,24,0.6,0,1,0,1.301,"",NA,NA,NA
"1055","replace","roach",39,1,27,4.733,21,0.525,1,1,1,1.022,"no",0,NA,22.473
"1055","knock","otter",40,1,18,3.293,12,0.3,0,0,1,1.526,"",NA,NA,NA
"1055","port","cinema",1,2,78,5.076,38,0.95,1,0,0,1.23,"cinema",1,NA,12.876
"1055","remind","foam",2,2,20,3.116,14,0.35,1,1,1,1.624,"replace",0,NA,13.149
"1055","fee","chowder",3,2,16,2.743,8,0.2,0,0,1,1.31,"",NA,NA,NA
"1055","shrink","mafia",4,2,31,2.876,23,0.575,1,1,1,7.255,"glove",0,NA,11.043
"1055","pea","bathtub",5,2,22,3.991,16,0.4,0,1,0,1.604,"",NA,NA,NA
"1055","capital","figure",6,2,73,4.04,36,0.9,1,0,0,0.933,"no",0,NA,37.149
"1055","fan","feature",7,2,34,3.077,26,0.65,0,1,0,7.214,"",NA,NA,NA
"1055","bias","sirloin",8,2,30,10.637,22,0.55,0,1,0,0.997,"",NA,NA,NA
"1055","copy","bedroom",9,2,22,3.797,17,0.425,1,1,1,1.23,"bedroom",1,NA,20.898
"1055","biology","temper",10,2,17,3.02,10,0.25,0,0,1,8.072,"",NA,NA,NA
"1055","collect","loyalty",11,2,34,4.763,25,0.625,0,1,0,2.328,"",NA,NA,NA
"1055","replace","roach",12,2,27,4.733,21,0.525,1,1,1,1.022,"no",0,NA,14.824
"1055","anger","decay",13,2,52,13.313,32,0.8,1,0,0,13.139,"decay",1,NA,10.768
"1055","grip","beach",14,2,32,12.78,24,0.6,0,1,0,1.301,"",NA,NA,NA
"1055","bacon","feud",15,2,17,4.671,9,0.225,0,0,1,2.128,"",NA,NA,NA
"1055","prison","loaf",16,2,71,7.157,35,0.875,1,0,0,1.117,"loaf",1,NA,13.28
"1055","link","crisis",17,2,18,2.845,11,0.275,0,1,0,1.533,"",NA,NA,NA
"1055","caring","skirt",18,2,11,4.035,2,0.05,0,0,1,6.829,"",NA,NA,NA
"1055","chicken","beet",19,2,41,5.526,30,0.75,1,1,1,1.741,"beet",1,NA,14.904
"1055","smother","surgery",20,2,16,8.245,7,0.175,0,0,1,1.045,"",NA,NA,NA
"1055","mill","feast",21,2,37,4.278,29,0.725,1,0,0,2.749,"no",0,NA,5.14
"1055","rock","milk",22,2,58,3.087,33,0.825,1,1,1,4.216,"milk",1,NA,34.255
"1055","find","clown",23,2,16,3.376,5,0.125,0,1,0,8.109,"",NA,NA,NA
"1055","forest","knob",24,2,26,4.91,20,0.5,1,1,1,3.526,"tree",0,NA,8.644
"1055","risk","zero",25,2,36,3.508,27,0.675,0,1,0,1.07,"",NA,NA,NA
"1055","process","joker",26,2,25,3.415,18,0.45,1,1,1,1.566,"no",0,NA,26.678
"1055","banner","glide",27,2,11,17.67,1,0.025,0,0,1,3.811,"",NA,NA,NA
"1055","date","laugh",28,2,67,9.719,34,0.85,1,0,0,1.797,"laugh",1,NA,11.333
"1055","bullet","walkway",29,2,20,12.573,13,0.325,1,1,1,1.198,"no",0,NA,17.032
"1055","nerve","bumper",30,2,22,4.171,15,0.375,0,1,0,5.869,"",NA,NA,NA
"1055","want","ascent",31,2,26,9.916,19,0.475,0,1,0,1.318,"",NA,NA,NA
"1055","calf","annoy",32,2,49,45.151,31,0.775,1,0,0,1.206,"no",0,NA,16.027
"1055","visit","glove",33,2,36,3.277,28,0.7,1,0,0,0.799,"no",0,NA,18.99
"1055","climax","saucer",34,2,15,8.309,4,0.1,0,0,1,1.39,"",NA,NA,NA
"1055","need","faucet",35,2,16,3.503,6,0.15,0,0,1,1.135,"",NA,NA,NA
"1055","plant","worm",36,2,79,2.814,39,0.975,1,0,0,1.06,"worm",1,NA,9.714
"1055","pork","emperor",37,2,74,3.252,37,0.925,1,0,0,0.872,"no",0,NA,25.223
"1055","knock","otter",38,2,18,3.293,12,0.3,0,0,1,1.526,"",NA,NA,NA
"1055","glue","force",39,2,15,4.11,3,0.075,0,0,1,7.631,"",NA,NA,NA
"1055","bleach","ruin",40,2,100,6.454,40,1,1,1,1,1.341,"ruin",1,NA,8.961
"1055","prison","loaf",1,3,71,7.157,35,0.875,1,0,0,1.117,"no",0,NA,8.657
"1055","capital","figure",2,3,73,4.04,36,0.9,1,0,0,0.933,"figure",1,NA,12.092
"1055","knock","otter",3,3,18,3.293,12,0.3,0,0,1,1.526,"",NA,NA,NA
"1055","nerve","bumper",4,3,22,4.171,15,0.375,0,1,0,5.869,"",NA,NA,NA
"1055","port","cinema",5,3,78,5.076,38,0.95,1,0,0,1.23,"cinema",1,NA,19.421
"1055","find","clown",6,3,16,3.376,5,0.125,0,1,0,8.109,"",NA,NA,NA
"1055","banner","glide",7,3,11,17.67,1,0.025,0,0,1,3.811,"",NA,NA,NA
"1055","rock","milk",8,3,58,3.087,33,0.825,1,1,1,4.216,"milk",1,NA,10.266
"1055","need","faucet",9,3,16,3.503,6,0.15,0,0,1,1.135,"",NA,NA,NA
"1055","collect","loyalty",10,3,34,4.763,25,0.625,0,1,0,2.328,"",NA,NA,NA
"1055","bacon","feud",11,3,17,4.671,9,0.225,0,0,1,2.128,"",NA,NA,NA
"1055","bias","sirloin",12,3,30,10.637,22,0.55,0,1,0,0.997,"",NA,NA,NA
"1055","chicken","beet",13,3,41,5.526,30,0.75,1,1,1,1.741,"beet",1,NA,6.142
"1055","climax","saucer",14,3,15,8.309,4,0.1,0,0,1,1.39,"",NA,NA,NA
"1055","calf","annoy",15,3,49,45.151,31,0.775,1,0,0,1.206,"no",0,NA,11.29
"1055","bleach","ruin",16,3,100,6.454,40,1,1,1,1,1.341,"ruin",1,NA,5.2
"1055","shrink","mafia",17,3,31,2.876,23,0.575,1,1,1,7.255,"no",0,NA,25.552
"1055","plant","worm",18,3,79,2.814,39,0.975,1,0,0,1.06,"worm",1,NA,11.11
"1055","process","joker",19,3,25,3.415,18,0.45,1,1,1,1.566,"no",0,NA,6.348
"1055","mill","feast",20,3,37,4.278,29,0.725,1,0,0,2.749,"no",0,NA,28.205
"1055","replace","roach",21,3,27,4.733,21,0.525,1,1,1,1.022,"no",0,NA,7.977
"1055","glue","force",22,3,15,4.11,3,0.075,0,0,1,7.631,"",NA,NA,NA
"1055","fee","chowder",23,3,16,2.743,8,0.2,0,0,1,1.31,"",NA,NA,NA
"1055","risk","zero",24,3,36,3.508,27,0.675,0,1,0,1.07,"",NA,NA,NA
"1055","visit","glove",25,3,36,3.277,28,0.7,1,0,0,0.799,"no",0,NA,11.281
"1055","date","laugh",26,3,67,9.719,34,0.85,1,0,0,1.797,"laugh",1,NA,7.085
"1055","biology","temper",27,3,17,3.02,10,0.25,0,0,1,8.072,"",NA,NA,NA
"1055","pea","bathtub",28,3,22,3.991,16,0.4,0,1,0,1.604,"",NA,NA,NA
"1055","remind","foam",29,3,20,3.116,14,0.35,1,1,1,1.624,"no",0,NA,17.906
"1055","caring","skirt",30,3,11,4.035,2,0.05,0,0,1,6.829,"",NA,NA,NA
"1055","fan","feature",31,3,34,3.077,26,0.65,0,1,0,7.214,"",NA,NA,NA
"1055","smother","surgery",32,3,16,8.245,7,0.175,0,0,1,1.045,"",NA,NA,NA
"1055","want","ascent",33,3,26,9.916,19,0.475,0,1,0,1.318,"",NA,NA,NA
"1055","forest","knob",34,3,26,4.91,20,0.5,1,1,1,3.526,"no",0,NA,20.192
"1055","bullet","walkway",35,3,20,12.573,13,0.325,1,1,1,1.198,"no",0,NA,9.152
"1055","link","crisis",36,3,18,2.845,11,0.275,0,1,0,1.533,"",NA,NA,NA
"1055","anger","decay",37,3,52,13.313,32,0.8,1,0,0,13.139,"decay",1,NA,11.734
"1055","grip","beach",38,3,32,12.78,24,0.6,0,1,0,1.301,"",NA,NA,NA
"1055","copy","bedroom",39,3,22,3.797,17,0.425,1,1,1,1.23,"bedroom",1,NA,13.891
"1055","pork","emperor",40,3,74,3.252,37,0.925,1,0,0,0.872,"no",0,NA,14.623
"1732","replace","roach",1,1,40,2.535,24,0.6,0,1,0,1.207,"",NA,NA,NA
"1732","bias","sirloin",2,1,22,4.228,4,0.1,1,0,0,1.048,"bleach",0,NA,8.854
"1732","fee","chowder",3,1,42,2.767,25,0.625,0,0,1,1.216,"",NA,NA,NA
"1732","anger","decay",4,1,65,3.151,38,0.95,0,0,1,1.055,"",NA,NA,NA
"1732","risk","zero",5,1,54,2.319,37,0.925,0,1,0,0.983,"",NA,NA,NA
"1732","link","crisis",6,1,33,2.391,8,0.2,1,1,1,0.975,"bias",0,NA,6.311
"1732","rock","milk",7,1,42,2.127,27,0.675,0,1,0,1.199,"",NA,NA,NA
"1732","mill","feast",8,1,10,4.316,1,0.025,1,0,0,1.223,"calf",0,NA,9.45
"1732","shrink","mafia",9,1,34,2.229,10,0.25,1,1,1,1.015,"rap",0,NA,5.608
"1732","copy","bedroom",10,1,46,3.173,30,0.75,0,0,1,1.223,"",NA,NA,NA
"1732","forest","knob",11,1,46,3.287,31,0.775,0,0,1,1.081,"",NA,NA,NA
"1732","chicken","beet",12,1,71,3.295,39,0.975,0,0,1,1.215,"",NA,NA,NA
"1732","port","cinema",13,1,38,2.839,17,0.425,1,1,1,1.087,"wine",0,NA,5.334
"1732","need","faucet",14,1,38,2.735,18,0.45,1,1,1,1.879,"fork",0,NA,9.247
"1732","nerve","bumper",15,1,44,2.679,29,0.725,0,0,1,1.367,"",NA,NA,NA
"1732","prison","loaf",16,1,100,3.51,40,1,0,0,1,1.335,"",NA,NA,NA
"1732","fan","feature",17,1,40,3.071,22,0.55,1,1,1,1.319,"walk",0,NA,18.543
"1732","pork","emperor",18,1,35,2.543,13,0.325,1,0,0,2.463,"mill",0,NA,5.919
"1732","biology","temper",19,1,27,2.637,5,0.125,1,0,0,0.967,"term",0,NA,5.895
"1732","bacon","feud",20,1,37,2.791,16,0.4,1,1,1,1.167,"wrap",0,NA,5.366
"1732","calf","annoy",21,1,18,3.479,2,0.05,1,0,0,0.967,"home",0,NA,5.751
"1732","pea","bathtub",22,1,21,3.599,3,0.075,1,0,0,1.391,"shock",0,NA,9.207
"1732","collect","loyalty",23,1,40,2.783,23,0.575,1,1,1,2.029,"term",0,NA,4.879
"1732","find","clown",24,1,34,2.327,11,0.275,1,0,0,1.022,"mill",0,NA,4.847
"1732","capital","figure",25,1,30,2.893,7,0.175,1,0,0,1.119,"check",0,NA,4.585
"1732","caring","skirt",26,1,50,4.175,35,0.875,0,1,0,0.959,"",NA,NA,NA
"1732","glue","force",27,1,47,4.015,33,0.825,0,1,0,1.014,"",NA,NA,NA
"1732","want","ascent",28,1,47,3.503,32,0.8,0,0,1,1.335,"",NA,NA,NA
"1732","grip","beach",29,1,39,3.471,21,0.525,1,1,1,1.215,"call",0,NA,6.614
"1732","bullet","walkway",30,1,52,4.636,36,0.9,0,1,0,12.511,"",NA,NA,NA
"1732","process","joker",31,1,42,2.423,26,0.65,0,0,1,0.976,"",NA,NA,NA
"1732","climax","saucer",32,1,44,2.943,28,0.7,0,0,1,1.103,"",NA,NA,NA
"1732","plant","worm",33,1,36,2.575,14,0.35,1,0,0,1.055,"mill",0,NA,9.23
"1732","banner","glide",34,1,48,2.238,34,0.85,0,1,0,0.959,"",NA,NA,NA
"1732","remind","foam",35,1,35,2.238,12,0.3,1,1,1,1.087,"call",0,NA,4.94
"1732","knock","otter",36,1,34,3.004,9,0.225,1,1,1,1.367,"door",0,NA,5.023
"1732","visit","glove",37,1,36,2.671,15,0.375,0,1,0,1.303,"",NA,NA,NA
"1732","smother","surgery",38,1,38,2.327,19,0.475,0,1,0,1.183,"",NA,NA,NA
"1732","bleach","ruin",39,1,30,2.471,6,0.15,1,0,0,0.935,"norm",0,NA,104.994
"1732","date","laugh",40,1,38,2.151,20,0.5,0,1,0,0.871,"",NA,NA,NA
"1732","bias","sirloin",1,2,22,4.228,4,0.1,1,0,0,1.048,"check",0,NA,6.981
"1732","plant","worm",2,2,36,2.575,14,0.35,1,0,0,1.055,"home",0,NA,4.527
"1732","caring","skirt",3,2,50,4.175,35,0.875,0,1,0,0.959,"",NA,NA,NA
"1732","climax","saucer",4,2,44,2.943,28,0.7,0,0,1,1.103,"",NA,NA,NA
"1732","remind","foam",5,2,35,2.238,12,0.3,1,1,1,1.087,"mill",0,NA,7.139
"1732","want","ascent",6,2,47,3.503,32,0.8,0,0,1,1.335,"",NA,NA,NA
"1732","calf","annoy",7,2,18,3.479,2,0.05,1,0,0,0.967,"ffarm",0,NA,11.788
"1732","nerve","bumper",8,2,44,2.679,29,0.725,0,0,1,1.367,"",NA,NA,NA
"1732","need","faucet",9,2,38,2.735,18,0.45,1,1,1,1.879,"want",0,NA,4.891
"1732","bullet","walkway",10,2,52,4.636,36,0.9,0,1,0,12.511,"",NA,NA,NA
"1732","pea","bathtub",11,2,21,3.599,3,0.075,1,0,0,1.391,"home",0,NA,5.236
"1732","fee","chowder",12,2,42,2.767,25,0.625,0,0,1,1.216,"",NA,NA,NA
"1732","link","crisis",13,2,33,2.391,8,0.2,1,1,1,0.975,"mill",0,NA,5.336
"1732","chicken","beet",14,2,71,3.295,39,0.975,0,0,1,1.215,"",NA,NA,NA
"1732","port","cinema",15,2,38,2.839,17,0.425,1,1,1,1.087,"wine",0,NA,8.716
"1732","knock","otter",16,2,34,3.004,9,0.225,1,1,1,1.367,"open",0,NA,641.191
"1732","bacon","feud",17,2,37,2.791,16,0.4,1,1,1,1.167,"bit",0,NA,4.989
"1732","find","clown",18,2,34,2.327,11,0.275,1,0,0,1.022,"come",0,NA,5.703
"1732","process","joker",19,2,42,2.423,26,0.65,0,0,1,0.976,"",NA,NA,NA
"1732","visit","glove",20,2,36,2.671,15,0.375,0,1,0,1.303,"",NA,NA,NA
"1732","forest","knob",21,2,46,3.287,31,0.775,0,0,1,1.081,"",NA,NA,NA
"1732","collect","loyalty",22,2,40,2.783,23,0.575,1,1,1,2.029,"pain",0,NA,6.394
"1732","shrink","mafia",23,2,34,2.229,10,0.25,1,1,1,1.015,"wrap",0,NA,4.431
"1732","pork","emperor",24,2,35,2.543,13,0.325,1,0,0,2.463,"mill",0,NA,4.454
"1732","anger","decay",25,2,65,3.151,38,0.95,0,0,1,1.055,"",NA,NA,NA
"1732","mill","feast",26,2,10,4.316,1,0.025,1,0,0,1.223,"prison",0,NA,6.844
"1732","rock","milk",27,2,42,2.127,27,0.675,0,1,0,1.199,"",NA,NA,NA
"1732","capital","figure",28,2,30,2.893,7,0.175,1,0,0,1.119,"city",0,NA,7.42
"1732","bleach","ruin",29,2,30,2.471,6,0.15,1,0,0,0.935,"mad",0,NA,7.918
"1732","copy","bedroom",30,2,46,3.173,30,0.75,0,0,1,1.223,"",NA,NA,NA
"1732","date","laugh",31,2,38,2.151,20,0.5,0,1,0,0.871,"",NA,NA,NA
"1732","glue","force",32,2,47,4.015,33,0.825,0,1,0,1.014,"",NA,NA,NA
"1732","risk","zero",33,2,54,2.319,37,0.925,0,1,0,0.983,"",NA,NA,NA
"1732","smother","surgery",34,2,38,2.327,19,0.475,0,1,0,1.183,"",NA,NA,NA
"1732","biology","temper",35,2,27,2.637,5,0.125,1,0,0,0.967,"term",0,NA,18.966
"1732","prison","loaf",36,2,100,3.51,40,1,0,0,1,1.335,"",NA,NA,NA
"1732","replace","roach",37,2,40,2.535,24,0.6,0,1,0,1.207,"",NA,NA,NA
"1732","banner","glide",38,2,48,2.238,34,0.85,0,1,0,0.959,"",NA,NA,NA
"1732","grip","beach",39,2,39,3.471,21,0.525,1,1,1,1.215,"touch",0,NA,5.17
"1732","fan","feature",40,2,40,3.071,22,0.55,1,1,1,1.319,"more",0,NA,6.175
"1732","fee","chowder",1,3,42,2.767,25,0.625,0,0,1,1.216,"",NA,NA,NA
"1732","climax","saucer",2,3,44,2.943,28,0.7,0,0,1,1.103,"",NA,NA,NA
"1732","calf","annoy",3,3,18,3.479,2,0.05,1,0,0,0.967,"mill",0,NA,5.468
"1732","nerve","bumper",4,3,44,2.679,29,0.725,0,0,1,1.367,"",NA,NA,NA
"1732","smother","surgery",5,3,38,2.327,19,0.475,0,1,0,1.183,"",NA,NA,NA
"1732","forest","knob",6,3,46,3.287,31,0.775,0,0,1,1.081,"",NA,NA,NA
"1732","need","faucet",7,3,38,2.735,18,0.45,1,1,1,1.879,"want",0,NA,5.462
"1732","process","joker",8,3,42,2.423,26,0.65,0,0,1,0.976,"",NA,NA,NA
"1732","find","clown",9,3,34,2.327,11,0.275,1,0,0,1.022,"more",0,NA,3.893
"1732","prison","loaf",10,3,100,3.51,40,1,0,0,1,1.335,"",NA,NA,NA
"1732","biology","temper",11,3,27,2.637,5,0.125,1,0,0,0.967,"term",0,NA,4.053
"1732","bleach","ruin",12,3,30,2.471,6,0.15,1,0,0,0.935,"come",0,NA,4.512
"1732","banner","glide",13,3,48,2.238,34,0.85,0,1,0,0.959,"",NA,NA,NA
"1732","glue","force",14,3,47,4.015,33,0.825,0,1,0,1.014,"",NA,NA,NA
"1732","bias","sirloin",15,3,22,4.228,4,0.1,1,0,0,1.048,"more",0,NA,3.82
"1732","knock","otter",16,3,34,3.004,9,0.225,1,1,1,1.367,"door",0,NA,3.703
"1732","want","ascent",17,3,47,3.503,32,0.8,0,0,1,1.335,"",NA,NA,NA
"1732","grip","beach",18,3,39,3.471,21,0.525,1,1,1,1.215,"term",0,NA,6.077
"1732","visit","glove",19,3,36,2.671,15,0.375,0,1,0,1.303,"",NA,NA,NA
"1732","rock","milk",20,3,42,2.127,27,0.675,0,1,0,1.199,"",NA,NA,NA
"1732","capital","figure",21,3,30,2.893,7,0.175,1,0,0,1.119,"city",0,NA,4.259
"1732","date","laugh",22,3,38,2.151,20,0.5,0,1,0,0.871,"",NA,NA,NA
"1732","pea","bathtub",23,3,21,3.599,3,0.075,1,0,0,1.391,"more",0,NA,5.545
"1732","caring","skirt",24,3,50,4.175,35,0.875,0,1,0,0.959,"",NA,NA,NA
"1732","fan","feature",25,3,40,3.071,22,0.55,1,1,1,1.319,"mill",0,NA,5.693
"1732","risk","zero",26,3,54,2.319,37,0.925,0,1,0,0.983,"",NA,NA,NA
"1732","bacon","feud",27,3,37,2.791,16,0.4,1,1,1,1.167,"bleach",0,NA,6.397
"1732","chicken","beet",28,3,71,3.295,39,0.975,0,0,1,1.215,"",NA,NA,NA
"1732","link","crisis",29,3,33,2.391,8,0.2,1,1,1,0.975,"none",0,NA,4.207
"1732","copy","bedroom",30,3,46,3.173,30,0.75,0,0,1,1.223,"",NA,NA,NA
"1732","bullet","walkway",31,3,52,4.636,36,0.9,0,1,0,12.511,"",NA,NA,NA
"1732","plant","worm",32,3,36,2.575,14,0.35,1,0,0,1.055,"sand",0,NA,8.028
"1732","mill","feast",33,3,10,4.316,1,0.025,1,0,0,1.223,"pea",0,NA,5.367
"1732","remind","foam",34,3,35,2.238,12,0.3,1,1,1,1.087,"mill",0,NA,4.903
"1732","pork","emperor",35,3,35,2.543,13,0.325,1,0,0,2.463,"pie",0,NA,4.694
"1732","shrink","mafia",36,3,34,2.229,10,0.25,1,1,1,1.015,"wrap",0,NA,4.463
"1732","replace","roach",37,3,40,2.535,24,0.6,0,1,0,1.207,"",NA,NA,NA
"1732","port","cinema",38,3,38,2.839,17,0.425,1,1,1,1.087,"wine",0,NA,5.005
"1732","anger","decay",39,3,65,3.151,38,0.95,0,0,1,1.055,"",NA,NA,NA
"1732","collect","loyalty",40,3,40,2.783,23,0.575,1,1,1,2.029,"pay",0,NA,4.447
"1762","fee","chowder",1,1,1,2.717,18,0.45,0,1,0,1.095,"",NA,NA,NA
"1762","pea","bathtub",2,1,100,2.191,36,0.9,0,0,1,1.509,"",NA,NA,NA
"1762","risk","zero",3,1,1,2.913,4,0.1,1,0,0,1.157,"antler",0,NA,9.128
"1762","climax","saucer",4,1,100,2.583,35,0.875,0,0,1,1.417,"",NA,NA,NA
"1762","link","crisis",5,1,3,2.731,30,0.75,0,1,0,1.331,"",NA,NA,NA
"1762","nerve","bumper",6,1,1,2.959,27,0.675,1,1,1,1.385,"festive",0,NA,5.77
"1762","biology","temper",7,1,1,2.193,9,0.225,1,0,0,0.743,"planter",0,NA,7.237
"1762","calf","annoy",8,1,27,2.419,32,0.8,0,1,0,0.703,"",NA,NA,NA
"1762","banner","glide",9,1,1,1.963,8,0.2,1,0,0,0.837,"climb",0,NA,18.32
"1762","pork","emperor",10,1,100,2.491,38,0.95,0,0,1,1.197,"",NA,NA,NA
"1762","fan","feature",11,1,1,7.181,16,0.4,0,1,0,0.727,"",NA,NA,NA
"1762","copy","bedroom",12,1,1,2.849,10,0.25,1,0,0,0.571,"plumb",0,NA,4.837
"1762","collect","loyalty",13,1,1,3.679,26,0.65,1,1,1,0.525,"hard",0,NA,5.092
"1762","mill","feast",14,1,1,1.904,21,0.525,1,1,1,0.984,"flag",0,NA,4.614
"1762","forest","knob",15,1,1,2.371,13,0.325,1,0,0,0.979,"run",0,NA,3.947
"1762","plant","worm",16,1,23,10.558,31,0.775,0,1,0,2.786,"",NA,NA,NA
"1762","visit","glove",17,1,1,2.231,22,0.55,1,1,1,0.735,"pants",0,NA,5.887
"1762","knock","otter",18,1,1,2.107,12,0.3,1,0,0,1.128,"love",0,NA,4.315
"1762","anger","decay",19,1,100,2.765,39,0.975,0,0,1,0.679,"",NA,NA,NA
"1762","prison","loaf",20,1,1,2.231,7,0.175,1,0,0,0.971,"people",0,NA,4.449
"1762","process","joker",21,1,1,3.821,2,0.05,1,0,0,4.55,"worm",0,NA,4.276
"1762","glue","force",22,1,1,1.683,23,0.575,1,1,1,0.719,"blanket",0,NA,4.858
"1762","bias","sirloin",23,1,72,3.375,33,0.825,0,0,1,0.688,"",NA,NA,NA
"1762","shrink","mafia",24,1,1,2.199,15,0.375,0,1,0,2.177,"",NA,NA,NA
"1762","replace","roach",25,1,1,3.906,3,0.075,1,0,0,1.159,"crab",0,NA,5.143
"1762","chicken","beet",26,1,100,2.631,40,1,0,0,1,0.813,"",NA,NA,NA
"1762","smother","surgery",27,1,77,4.83,34,0.85,0,0,1,7.871,"",NA,NA,NA
"1762","bleach","ruin",28,1,1,3.021,6,0.15,1,1,1,2.397,"sand",0,NA,4.086
"1762","date","laugh",29,1,100,2.151,37,0.925,0,0,1,1.167,"",NA,NA,NA
"1762","rock","milk",30,1,1,1.909,19,0.475,0,1,0,0.673,"",NA,NA,NA
"1762","grip","beach",31,1,1,2.594,29,0.725,0,0,1,0.694,"",NA,NA,NA
"1762","find","clown",32,1,1,1.754,25,0.625,1,1,1,0.617,"sprinkle",0,NA,5.525
"1762","bullet","walkway",33,1,1,2.255,20,0.5,0,1,0,0.875,"",NA,NA,NA
"1762","need","faucet",34,1,1,2.395,17,0.425,0,1,0,1.049,"",NA,NA,NA
"1762","bacon","feud",35,1,1,2.191,14,0.35,0,1,0,1.157,"",NA,NA,NA
"1762","want","ascent",36,1,1,2.325,11,0.275,1,0,0,0.727,"sheep",0,NA,8.526
"1762","port","cinema",37,1,1,4.573,1,0.025,1,1,1,1.839,"watch",0,NA,10.12
"1762","caring","skirt",38,1,1,2.271,24,0.6,1,1,1,0.673,"team",0,NA,4.331
"1762","capital","figure",39,1,1,2.137,5,0.125,1,1,1,0.987,"fight",0,NA,9.863
"1762","remind","foam",40,1,1,2.435,28,0.7,0,0,1,0.853,"",NA,NA,NA
"1762","banner","glide",1,2,1,1.963,8,0.2,1,0,0,0.837,"dont know",0,NA,6.046
"1762","anger","decay",2,2,100,2.765,39,0.975,0,0,1,0.679,"",NA,NA,NA
"1762","capital","figure",3,2,1,2.137,5,0.125,1,1,1,0.987,"dont know",0,NA,9.584
"1762","caring","skirt",4,2,1,2.271,24,0.6,1,1,1,0.673,"dont know",0,NA,5.889
"1762","biology","temper",5,2,1,2.193,9,0.225,1,0,0,0.743,"microscope",0,NA,3.808
"1762","climax","saucer",6,2,100,2.583,35,0.875,0,0,1,1.417,"",NA,NA,NA
"1762","forest","knob",7,2,1,2.371,13,0.325,1,0,0,0.979,"run",0,NA,3.502
"1762","port","cinema",8,2,1,4.573,1,0.025,1,1,1,1.839,"watch",0,NA,5.535
"1762","prison","loaf",9,2,1,2.231,7,0.175,1,0,0,0.971,"soap",0,NA,2.549
"1762","fee","chowder",10,2,1,2.717,18,0.45,0,1,0,1.095,"",NA,NA,NA
"1762","replace","roach",11,2,1,3.906,3,0.075,1,0,0,1.159,"blanket",0,NA,2.595
"1762","process","joker",12,2,1,3.821,2,0.05,1,0,0,4.55,"think",0,NA,2.644
"1762","find","clown",13,2,1,1.754,25,0.625,1,1,1,0.617,"look",0,NA,2.507
"1762","chicken","beet",14,2,100,2.631,40,1,0,0,1,0.813,"",NA,NA,NA
"1762","fan","feature",15,2,1,7.181,16,0.4,0,1,0,0.727,"",NA,NA,NA
"1762","bullet","walkway",16,2,1,2.255,20,0.5,0,1,0,0.875,"",NA,NA,NA
"1762","shrink","mafia",17,2,1,2.199,15,0.375,0,1,0,2.177,"",NA,NA,NA
"1762","plant","worm",18,2,23,10.558,31,0.775,0,1,0,2.786,"",NA,NA,NA
"1762","mill","feast",19,2,1,1.904,21,0.525,1,1,1,0.984,"mall",0,NA,6.854
"1762","pork","emperor",20,2,100,2.491,38,0.95,0,0,1,1.197,"",NA,NA,NA
"1762","calf","annoy",21,2,27,2.419,32,0.8,0,1,0,0.703,"",NA,NA,NA
"1762","visit","glove",22,2,1,2.231,22,0.55,1,1,1,0.735,"speak",0,NA,2.575
"1762","nerve","bumper",23,2,1,2.959,27,0.675,1,1,1,1.385,"function",0,NA,4.127
"1762","link","crisis",24,2,3,2.731,30,0.75,0,1,0,1.331,"",NA,NA,NA
"1762","remind","foam",25,2,1,2.435,28,0.7,0,0,1,0.853,"",NA,NA,NA
"1762","risk","zero",26,2,1,2.913,4,0.1,1,0,0,1.157,"don't know",0,NA,6.56
"1762","bias","sirloin",27,2,72,3.375,33,0.825,0,0,1,0.688,"",NA,NA,NA
"1762","glue","force",28,2,1,1.683,23,0.575,1,1,1,0.719,"orange",0,NA,6.686
"1762","collect","loyalty",29,2,1,3.679,26,0.65,1,1,1,0.525,"rock",0,NA,1.969
"1762","bleach","ruin",30,2,1,3.021,6,0.15,1,1,1,2.397,"car",0,NA,5.496
"1762","bacon","feud",31,2,1,2.191,14,0.35,0,1,0,1.157,"",NA,NA,NA
"1762","grip","beach",32,2,1,2.594,29,0.725,0,0,1,0.694,"",NA,NA,NA
"1762","date","laugh",33,2,100,2.151,37,0.925,0,0,1,1.167,"",NA,NA,NA
"1762","smother","surgery",34,2,77,4.83,34,0.85,0,0,1,7.871,"",NA,NA,NA
"1762","need","faucet",35,2,1,2.395,17,0.425,0,1,0,1.049,"",NA,NA,NA
"1762","want","ascent",36,2,1,2.325,11,0.275,1,0,0,0.727,"grapes",0,NA,6.31
"1762","rock","milk",37,2,1,1.909,19,0.475,0,1,0,0.673,"",NA,NA,NA
"1762","copy","bedroom",38,2,1,2.849,10,0.25,1,0,0,0.571,"dont know",0,NA,3.057
"1762","knock","otter",39,2,1,2.107,12,0.3,1,0,0,1.128,"milk",0,NA,3.961
"1762","pea","bathtub",40,2,100,2.191,36,0.9,0,0,1,1.509,"",NA,NA,NA
"1762","collect","loyalty",1,3,1,3.679,26,0.65,1,1,1,0.525,"dont know",0,NA,4.863
"1762","remind","foam",2,3,1,2.435,28,0.7,0,0,1,0.853,"",NA,NA,NA
"1762","bias","sirloin",3,3,72,3.375,33,0.825,0,0,1,0.688,"",NA,NA,NA
"1762","mill","feast",4,3,1,1.904,21,0.525,1,1,1,0.984,"dont know",0,NA,2.626
"1762","nerve","bumper",5,3,1,2.959,27,0.675,1,1,1,1.385,"dont know",0,NA,4.726
"1762","knock","otter",6,3,1,2.107,12,0.3,1,0,0,1.128,"dont know",0,NA,2.807
"1762","anger","decay",7,3,100,2.765,39,0.975,0,0,1,0.679,"",NA,NA,NA
"1762","bacon","feud",8,3,1,2.191,14,0.35,0,1,0,1.157,"",NA,NA,NA
"1762","chicken","beet",9,3,100,2.631,40,1,0,0,1,0.813,"",NA,NA,NA
"1762","process","joker",10,3,1,3.821,2,0.05,1,0,0,4.55,"dont know",0,NA,11.48
"1762","pork","emperor",11,3,100,2.491,38,0.95,0,0,1,1.197,"",NA,NA,NA
"1762","fee","chowder",12,3,1,2.717,18,0.45,0,1,0,1.095,"",NA,NA,NA
"1762","plant","worm",13,3,23,10.558,31,0.775,0,1,0,2.786,"",NA,NA,NA
"1762","copy","bedroom",14,3,1,2.849,10,0.25,1,0,0,0.571,"paste",0,NA,6.848
"1762","date","laugh",15,3,100,2.151,37,0.925,0,0,1,1.167,"",NA,NA,NA
"1762","capital","figure",16,3,1,2.137,5,0.125,1,1,1,0.987,"fight",0,NA,1.827
"1762","want","ascent",17,3,1,2.325,11,0.275,1,0,0,0.727,"need",0,NA,2.654
"1762","bleach","ruin",18,3,1,3.021,6,0.15,1,1,1,2.397,"grip",0,NA,2.796
"1762","calf","annoy",19,3,27,2.419,32,0.8,0,1,0,0.703,"",NA,NA,NA
"1762","biology","temper",20,3,1,2.193,9,0.225,1,0,0,0.743,"microscope",0,NA,2.89
"1762","need","faucet",21,3,1,2.395,17,0.425,0,1,0,1.049,"",NA,NA,NA
"1762","fan","feature",22,3,1,7.181,16,0.4,0,1,0,0.727,"",NA,NA,NA
"1762","find","clown",23,3,1,1.754,25,0.625,1,1,1,0.617,"seek",0,NA,2.759
"1762","banner","glide",24,3,1,1.963,8,0.2,1,0,0,0.837,"flag",0,NA,2.412
"1762","link","crisis",25,3,3,2.731,30,0.75,0,1,0,1.331,"",NA,NA,NA
"1762","grip","beach",26,3,1,2.594,29,0.725,0,0,1,0.694,"",NA,NA,NA
"1762","port","cinema",27,3,1,4.573,1,0.025,1,1,1,1.839,"dont iknow",0,NA,3.72
"1762","pea","bathtub",28,3,100,2.191,36,0.9,0,0,1,1.509,"",NA,NA,NA
"1762","smother","surgery",29,3,77,4.83,34,0.85,0,0,1,7.871,"",NA,NA,NA
"1762","forest","knob",30,3,1,2.371,13,0.325,1,0,0,0.979,"run",0,NA,2.657
"1762","prison","loaf",31,3,1,2.231,7,0.175,1,0,0,0.971,"time",0,NA,2.145
"1762","risk","zero",32,3,1,2.913,4,0.1,1,0,0,1.157,"reward",0,NA,2.658
"1762","visit","glove",33,3,1,2.231,22,0.55,1,1,1,0.735,"leave",0,NA,4.779
"1762","caring","skirt",34,3,1,2.271,24,0.6,1,1,1,0.673,"hug",0,NA,2.722
"1762","rock","milk",35,3,1,1.909,19,0.475,0,1,0,0.673,"",NA,NA,NA
"1762","climax","saucer",36,3,100,2.583,35,0.875,0,0,1,1.417,"",NA,NA,NA
"1762","shrink","mafia",37,3,1,2.199,15,0.375,0,1,0,2.177,"",NA,NA,NA
"1762","replace","roach",38,3,1,3.906,3,0.075,1,0,0,1.159,"Don't know",0,NA,3.678
"1762","glue","force",39,3,1,1.683,23,0.575,1,1,1,0.719,"don't know",0,NA,2.927
"1762","bullet","walkway",40,3,1,2.255,20,0.5,0,1,0,0.875,"",NA,NA,NA
"1803","remind","foam",1,1,1,2.039,25,0.625,0,0,1,0.798,"",NA,NA,NA
"1803","pea","bathtub",2,1,1,2.231,21,0.525,0,0,1,0.679,"",NA,NA,NA
"1803","find","clown",3,1,1,3.567,10,0.25,0,1,0,1.839,"",NA,NA,NA
"1803","risk","zero",4,1,100,20.909,37,0.925,1,1,1,8.589,"zero",1,NA,12.06
"1803","fee","chowder",5,1,1,7.712,18,0.45,1,0,0,0.838,"chain",0,NA,12.671
"1803","rock","milk",6,1,1,7.663,5,0.125,0,1,0,1.064,"",NA,NA,NA
"1803","knock","otter",7,1,1,3.617,15,0.375,1,0,0,1.285,"door",0,NA,11.18
"1803","process","joker",8,1,1,6.591,17,0.425,1,0,0,0.734,"serve",0,NA,6.839
"1803","glue","force",9,1,1,6.543,2,0.05,0,1,0,2.023,"",NA,NA,NA
"1803","biology","temper",10,1,74,11.111,36,0.9,1,1,1,0.912,"temper",1,NA,7.926
"1803","capital","figure",11,1,1,8.247,12,0.3,1,0,0,1.263,"person",0,NA,12.711
"1803","climax","saucer",12,1,1,13.182,9,0.225,0,1,0,0.839,"",NA,NA,NA
"1803","bullet","walkway",13,1,1,4.6,30,0.75,1,1,1,0.727,"path",0,NA,26.62
"1803","smother","surgery",14,1,21,18.95,32,0.8,1,1,1,1.223,"inside",0,NA,13.159
"1803","need","faucet",15,1,1,4.047,7,0.175,0,1,0,1.276,"",NA,NA,NA
"1803","link","crisis",16,1,1,1.983,22,0.55,0,0,1,0.719,"",NA,NA,NA
"1803","calf","annoy",17,1,1,2.015,24,0.6,0,0,1,0.711,"",NA,NA,NA
"1803","nerve","bumper",18,1,1,5.015,3,0.075,0,1,0,0.83,"",NA,NA,NA
"1803","bacon","feud",19,1,1,2.91,19,0.475,0,0,1,2.863,"",NA,NA,NA
"1803","anger","decay",20,1,100,5.758,39,0.975,1,1,1,1.071,"decay",1,NA,15.772
"1803","plant","worm",21,1,1,2.799,26,0.65,0,0,1,0.695,"",NA,NA,NA
"1803","shrink","mafia",22,1,1,6.063,11,0.275,1,0,0,1.159,"manager",0,NA,20.317
"1803","chicken","beet",23,1,1,19.031,6,0.15,0,1,0,0.83,"",NA,NA,NA
"1803","collect","loyalty",24,1,1,15.527,16,0.4,1,0,0,0.599,"honest",0,NA,14.461
"1803","mill","feast",25,1,2,2.983,31,0.775,1,0,0,1.423,"skip",0,NA,26.583
"1803","copy","bedroom",26,1,25,10.375,33,0.825,1,0,0,1.303,"skip",0,NA,10.855
"1803","fan","feature",27,1,1,2.615,20,0.5,0,0,1,0.767,"",NA,NA,NA
"1803","bias","sirloin",28,1,25,5.255,34,0.85,1,1,1,5.207,"skip",0,NA,27.253
"1803","forest","knob",29,1,1,2.079,23,0.575,0,0,1,0.703,"",NA,NA,NA
"1803","visit","glove",30,1,1,6.543,8,0.2,0,1,0,1.072,"",NA,NA,NA
"1803","port","cinema",31,1,1,2.072,28,0.7,0,0,1,0.888,"",NA,NA,NA
"1803","replace","roach",32,1,1,3.127,14,0.35,1,0,0,1.247,"skip",0,NA,16.16
"1803","banner","glide",33,1,1,2.487,4,0.1,0,1,0,3.911,"",NA,NA,NA
"1803","prison","loaf",34,1,100,5.367,40,1,1,1,1,1.624,"loaf",1,NA,13.965
"1803","want","ascent",35,1,1,1.768,27,0.675,0,0,1,0.814,"",NA,NA,NA
"1803","grip","beach",36,1,100,9.647,38,0.95,1,1,1,1.247,"beach",1,NA,18.374
"1803","bleach","ruin",37,1,1,16.086,13,0.325,1,0,0,1.095,"ruin",1,NA,6.855
"1803","pork","emperor",38,1,1,2.151,29,0.725,1,1,1,0.839,"skip",0,NA,66.054
"1803","caring","skirt",39,1,1,11.046,1,0.025,0,1,0,2.775,"",NA,NA,NA
"1803","date","laugh",40,1,72,6.143,35,0.875,1,1,1,0.999,"laugh",1,NA,27.444
"1803","caring","skirt",1,2,1,11.046,1,0.025,0,1,0,2.775,"",NA,NA,NA
"1803","rock","milk",2,2,1,7.663,5,0.125,0,1,0,1.064,"",NA,NA,NA
"1803","fee","chowder",3,2,1,7.712,18,0.45,1,0,0,0.838,"skip",0,NA,20.743
"1803","forest","knob",4,2,1,2.079,23,0.575,0,0,1,0.703,"",NA,NA,NA
"1803","chicken","beet",5,2,1,19.031,6,0.15,0,1,0,0.83,"",NA,NA,NA
"1803","knock","otter",6,2,1,3.617,15,0.375,1,0,0,1.285,"door",0,NA,25.371
"1803","bacon","feud",7,2,1,2.91,19,0.475,0,0,1,2.863,"",NA,NA,NA
"1803","pea","bathtub",8,2,1,2.231,21,0.525,0,0,1,0.679,"",NA,NA,NA
"1803","risk","zero",9,2,100,20.909,37,0.925,1,1,1,8.589,"zero",1,NA,5.523
"1803","find","clown",10,2,1,3.567,10,0.25,0,1,0,1.839,"",NA,NA,NA
"1803","process","joker",11,2,1,6.591,17,0.425,1,0,0,0.734,"skip",0,NA,11.621
"1803","fan","feature",12,2,1,2.615,20,0.5,0,0,1,0.767,"",NA,NA,NA
"1803","replace","roach",13,2,1,3.127,14,0.35,1,0,0,1.247,"skip",0,NA,90.388
"1803","calf","annoy",14,2,1,2.015,24,0.6,0,0,1,0.711,"",NA,NA,NA
"1803","capital","figure",15,2,1,8.247,12,0.3,1,0,0,1.263,"skip",0,NA,16.765
"1803","plant","worm",16,2,1,2.799,26,0.65,0,0,1,0.695,"",NA,NA,NA
"1803","copy","bedroom",17,2,25,10.375,33,0.825,1,0,0,1.303,"paper",0,NA,50.254
"1803","shrink","mafia",18,2,1,6.063,11,0.275,1,0,0,1.159,"manager",0,NA,10.255
"1803","mill","feast",19,2,2,2.983,31,0.775,1,0,0,1.423,"skip",0,NA,7.455
"1803","remind","foam",20,2,1,2.039,25,0.625,0,0,1,0.798,"",NA,NA,NA
"1803","bullet","walkway",21,2,1,4.6,30,0.75,1,1,1,0.727,"skip",0,NA,58.468
"1803","date","laugh",22,2,72,6.143,35,0.875,1,1,1,0.999,"laugh",1,NA,11.127
"1803","grip","beach",23,2,100,9.647,38,0.95,1,1,1,1.247,"beach",1,NA,7.431
"1803","climax","saucer",24,2,1,13.182,9,0.225,0,1,0,0.839,"",NA,NA,NA
"1803","bias","sirloin",25,2,25,5.255,34,0.85,1,1,1,5.207,"skip",0,NA,65.044
"1803","banner","glide",26,2,1,2.487,4,0.1,0,1,0,3.911,"",NA,NA,NA
"1803","link","crisis",27,2,1,1.983,22,0.55,0,0,1,0.719,"",NA,NA,NA
"1803","glue","force",28,2,1,6.543,2,0.05,0,1,0,2.023,"",NA,NA,NA
"1803","pork","emperor",29,2,1,2.151,29,0.725,1,1,1,0.839,"power",0,NA,26.112
"1803","prison","loaf",30,2,100,5.367,40,1,1,1,1,1.624,"loaf",1,NA,4.143
"1803","anger","decay",31,2,100,5.758,39,0.975,1,1,1,1.071,"decay",1,NA,45.022
"1803","collect","loyalty",32,2,1,15.527,16,0.4,1,0,0,0.599,"skip",0,NA,10.815
"1803","visit","glove",33,2,1,6.543,8,0.2,0,1,0,1.072,"",NA,NA,NA
"1803","bleach","ruin",34,2,1,16.086,13,0.325,1,0,0,1.095,"ruin",1,NA,28.862
"1803","want","ascent",35,2,1,1.768,27,0.675,0,0,1,0.814,"",NA,NA,NA
"1803","need","faucet",36,2,1,4.047,7,0.175,0,1,0,1.276,"",NA,NA,NA
"1803","port","cinema",37,2,1,2.072,28,0.7,0,0,1,0.888,"",NA,NA,NA
"1803","biology","temper",38,2,74,11.111,36,0.9,1,1,1,0.912,"temper",1,NA,16.773
"1803","nerve","bumper",39,2,1,5.015,3,0.075,0,1,0,0.83,"",NA,NA,NA
"1803","smother","surgery",40,2,21,18.95,32,0.8,1,1,1,1.223,"skip",0,NA,12.669
"1803","forest","knob",1,3,1,2.079,23,0.575,0,0,1,0.703,"",NA,NA,NA
"1803","plant","worm",2,3,1,2.799,26,0.65,0,0,1,0.695,"",NA,NA,NA
"1803","port","cinema",3,3,1,2.072,28,0.7,0,0,1,0.888,"",NA,NA,NA
"1803","nerve","bumper",4,3,1,5.015,3,0.075,0,1,0,0.83,"",NA,NA,NA
"1803","bullet","walkway",5,3,1,4.6,30,0.75,1,1,1,0.727,"skip",0,NA,29.833
"1803","shrink","mafia",6,3,1,6.063,11,0.275,1,0,0,1.159,"skip",0,NA,21.879
"1803","link","crisis",7,3,1,1.983,22,0.55,0,0,1,0.719,"",NA,NA,NA
"1803","climax","saucer",8,3,1,13.182,9,0.225,0,1,0,0.839,"",NA,NA,NA
"1803","pea","bathtub",9,3,1,2.231,21,0.525,0,0,1,0.679,"",NA,NA,NA
"1803","process","joker",10,3,1,6.591,17,0.425,1,0,0,0.734,"skip",0,NA,12.604
"1803","biology","temper",11,3,74,11.111,36,0.9,1,1,1,0.912,"temper",1,NA,5.416
"1803","bias","sirloin",12,3,25,5.255,34,0.85,1,1,1,5.207,"skip",0,NA,6.493
"1803","risk","zero",13,3,100,20.909,37,0.925,1,1,1,8.589,"zero",1,NA,4.175
"1803","glue","force",14,3,1,6.543,2,0.05,0,1,0,2.023,"",NA,NA,NA
"1803","rock","milk",15,3,1,7.663,5,0.125,0,1,0,1.064,"",NA,NA,NA
"1803","visit","glove",16,3,1,6.543,8,0.2,0,1,0,1.072,"",NA,NA,NA
"1803","smother","surgery",17,3,21,18.95,32,0.8,1,1,1,1.223,"skip",0,NA,10.851
"1803","prison","loaf",18,3,100,5.367,40,1,1,1,1,1.624,"loaf",1,NA,4.367
"1803","grip","beach",19,3,100,9.647,38,0.95,1,1,1,1.247,"beach",1,NA,6.855
"1803","banner","glide",20,3,1,2.487,4,0.1,0,1,0,3.911,"",NA,NA,NA
"1803","anger","decay",21,3,100,5.758,39,0.975,1,1,1,1.071,"decay",1,NA,19.645
"1803","bleach","ruin",22,3,1,16.086,13,0.325,1,0,0,1.095,"ruin",1,NA,4.158
"1803","fan","feature",23,3,1,2.615,20,0.5,0,0,1,0.767,"",NA,NA,NA
"1803","replace","roach",24,3,1,3.127,14,0.35,1,0,0,1.247,"skip",0,NA,12.981
"1803","mill","feast",25,3,2,2.983,31,0.775,1,0,0,1.423,"skip",0,NA,4.343
"1803","chicken","beet",26,3,1,19.031,6,0.15,0,1,0,0.83,"",NA,NA,NA
"1803","capital","figure",27,3,1,8.247,12,0.3,1,0,0,1.263,"skip",0,NA,12.702
"1803","copy","bedroom",28,3,25,10.375,33,0.825,1,0,0,1.303,"skip",0,NA,11.152
"1803","find","clown",29,3,1,3.567,10,0.25,0,1,0,1.839,"",NA,NA,NA
"1803","bacon","feud",30,3,1,2.91,19,0.475,0,0,1,2.863,"",NA,NA,NA
"1803","need","faucet",31,3,1,4.047,7,0.175,0,1,0,1.276,"",NA,NA,NA
"1803","want","ascent",32,3,1,1.768,27,0.675,0,0,1,0.814,"",NA,NA,NA
"1803","knock","otter",33,3,1,3.617,15,0.375,1,0,0,1.285,"skip",0,NA,17.753
"1803","calf","annoy",34,3,1,2.015,24,0.6,0,0,1,0.711,"",NA,NA,NA
"1803","date","laugh",35,3,72,6.143,35,0.875,1,1,1,0.999,"laugh",1,NA,7.078
"1803","remind","foam",36,3,1,2.039,25,0.625,0,0,1,0.798,"",NA,NA,NA
"1803","caring","skirt",37,3,1,11.046,1,0.025,0,1,0,2.775,"",NA,NA,NA
"1803","collect","loyalty",38,3,1,15.527,16,0.4,1,0,0,0.599,"skip",0,NA,24.003
"1803","fee","chowder",39,3,1,7.712,18,0.45,1,0,0,0.838,"skip",0,NA,6.895
"1803","pork","emperor",40,3,1,2.151,29,0.725,1,1,1,0.839,"power",0,NA,8.175
"1818","remind","foam",1,1,25,3.881,30,0.75,0,1,0,0.675,"",NA,NA,NA
"1818","bias","sirloin",2,1,1,2.1,13,0.325,1,1,1,0.621,"SKIP",0,NA,15.297
"1818","glue","force",3,1,8,2.469,23,0.575,0,1,0,0.794,"",NA,NA,NA
"1818","mill","feast",4,1,1,4.96,20,0.5,1,1,1,0.588,"SKIP",0,NA,6.815
"1818","bleach","ruin",5,1,1,7.18,1,0.025,1,0,0,11.604,"towel",0,NA,4.845
"1818","grip","beach",6,1,1,5.03,5,0.125,1,0,0,0.483,"SKIP",0,NA,6.601
"1818","pork","emperor",7,1,29,2.05,31,0.775,0,0,1,0.643,"",NA,NA,NA
"1818","find","clown",8,1,1,1.878,18,0.45,1,1,1,0.685,"SKIP",0,NA,9.221
"1818","forest","knob",9,1,1,2.489,7,0.175,1,0,0,0.591,"SKIP",0,NA,9.217
"1818","collect","loyalty",10,1,100,4.938,39,0.975,0,0,1,0.582,"",NA,NA,NA
"1818","replace","roach",11,1,17,3.023,27,0.675,0,1,0,0.749,"",NA,NA,NA
"1818","caring","skirt",12,1,1,3.824,2,0.05,1,0,0,0.902,"anger",0,NA,5.579
"1818","chicken","beet",13,1,1,1.961,12,0.3,1,1,1,1.308,"SKIP",0,NA,4.648
"1818","banner","glide",14,1,7,3.789,22,0.55,0,1,0,0.89,"",NA,NA,NA
"1818","calf","annoy",15,1,12,2.658,25,0.625,0,1,0,0.721,"",NA,NA,NA
"1818","port","cinema",16,1,1,1.773,17,0.425,1,1,1,0.634,"trade",0,NA,13.051
"1818","copy","bedroom",17,1,1,2.575,6,0.15,1,0,0,0.97,"machine",0,NA,5.063
"1818","rock","milk",18,1,1,2.079,9,0.225,1,0,0,0.71,"SKIP",0,NA,4.018
"1818","date","laugh",19,1,1,4.326,3,0.075,1,0,0,0.89,"SKIP",0,NA,6.553
"1818","bacon","feud",20,1,1,1.923,14,0.35,1,1,1,1.004,"dry",0,NA,8.962
"1818","fan","feature",21,1,1,2.062,4,0.1,1,0,0,0.817,"SKIP",0,NA,3.008
"1818","knock","otter",22,1,1,1.855,16,0.4,1,1,1,0.524,"SKIP",0,NA,3.349
"1818","process","joker",23,1,1,1.968,15,0.375,1,1,1,0.561,"eliminate",0,NA,5.327
"1818","smother","surgery",24,1,33,3.051,32,0.8,0,1,0,0.557,"",NA,NA,NA
"1818","bullet","walkway",25,1,57,3.101,34,0.85,0,0,1,0.783,"",NA,NA,NA
"1818","pea","bathtub",26,1,79,3.461,37,0.925,0,0,1,0.467,"",NA,NA,NA
"1818","capital","figure",27,1,59,6.744,35,0.875,0,0,1,0.678,"",NA,NA,NA
"1818","risk","zero",28,1,100,2.564,38,0.95,0,0,1,0.671,"",NA,NA,NA
"1818","visit","glove",29,1,1,2.705,11,0.275,0,1,0,0.581,"",NA,NA,NA
"1818","climax","saucer",30,1,39,6.516,33,0.825,0,0,1,0.664,"",NA,NA,NA
"1818","want","ascent",31,1,6,3.437,21,0.525,0,1,0,0.776,"",NA,NA,NA
"1818","plant","worm",32,1,18,1.978,28,0.7,0,0,1,0.533,"",NA,NA,NA
"1818","anger","decay",33,1,100,2.069,40,1,0,0,1,0.626,"",NA,NA,NA
"1818","prison","loaf",34,1,14,1.981,26,0.65,1,1,1,0.526,"Trap",0,NA,9.136
"1818","shrink","mafia",35,1,23,2.314,29,0.725,0,1,0,0.717,"",NA,NA,NA
"1818","fee","chowder",36,1,1,2.989,8,0.2,1,0,0,0.636,"collect",0,NA,3.906
"1818","nerve","bumper",37,1,9,5.079,24,0.6,0,1,0,8.453,"",NA,NA,NA
"1818","link","crisis",38,1,1,1.887,19,0.475,1,1,1,0.554,"SKIP",0,NA,2.652
"1818","need","faucet",39,1,1,2.921,10,0.25,1,0,0,0.865,"obtain",0,NA,11.033
"1818","biology","temper",40,1,69,3.477,36,0.9,0,0,1,0.767,"",NA,NA,NA
"1818","find","clown",1,2,1,1.878,18,0.45,1,1,1,0.685,"locate",0,NA,6.766
"1818","copy","bedroom",2,2,1,2.575,6,0.15,1,0,0,0.97,"bacon",0,NA,14.523
"1818","smother","surgery",3,2,33,3.051,32,0.8,0,1,0,0.557,"",NA,NA,NA
"1818","rock","milk",4,2,1,2.079,9,0.225,1,0,0,0.71,"SKIP",0,NA,4.688
"1818","mill","feast",5,2,1,4.96,20,0.5,1,1,1,0.588,"corn",0,NA,5.098
"1818","link","crisis",6,2,1,1.887,19,0.475,1,1,1,0.554,"SKIP",0,NA,3.126
"1818","climax","saucer",7,2,39,6.516,33,0.825,0,0,1,0.664,"",NA,NA,NA
"1818","grip","beach",8,2,1,5.03,5,0.125,1,0,0,0.483,"SKIP",0,NA,3.902
"1818","plant","worm",9,2,18,1.978,28,0.7,0,0,1,0.533,"",NA,NA,NA
"1818","pea","bathtub",10,2,79,3.461,37,0.925,0,0,1,0.467,"",NA,NA,NA
"1818","shrink","mafia",11,2,23,2.314,29,0.725,0,1,0,0.717,"",NA,NA,NA
"1818","replace","roach",12,2,17,3.023,27,0.675,0,1,0,0.749,"",NA,NA,NA
"1818","knock","otter",13,2,1,1.855,16,0.4,1,1,1,0.524,"open",0,NA,4.136
"1818","calf","annoy",14,2,12,2.658,25,0.625,0,1,0,0.721,"",NA,NA,NA
"1818","chicken","beet",15,2,1,1.961,12,0.3,1,1,1,1.308,"SKIP",0,NA,4.643
"1818","bacon","feud",16,2,1,1.923,14,0.35,1,1,1,1.004,"SKIP",0,NA,4.978
"1818","process","joker",17,2,1,1.968,15,0.375,1,1,1,0.561,"open",0,NA,8.198
"1818","visit","glove",18,2,1,2.705,11,0.275,0,1,0,0.581,"",NA,NA,NA
"1818","biology","temper",19,2,69,3.477,36,0.9,0,0,1,0.767,"",NA,NA,NA
"1818","prison","loaf",20,2,14,1.981,26,0.65,1,1,1,0.526,"Trap",0,NA,6.082
"1818","banner","glide",21,2,7,3.789,22,0.55,0,1,0,0.89,"",NA,NA,NA
"1818","anger","decay",22,2,100,2.069,40,1,0,0,1,0.626,"",NA,NA,NA
"1818","port","cinema",23,2,1,1.773,17,0.425,1,1,1,0.634,"Trade",0,NA,20.759
"1818","capital","figure",24,2,59,6.744,35,0.875,0,0,1,0.678,"",NA,NA,NA
"1818","fan","feature",25,2,1,2.062,4,0.1,1,0,0,0.817,"SKIP",0,NA,2.939
"1818","date","laugh",26,2,1,4.326,3,0.075,1,0,0,0.89,"SKIP",0,NA,6.381
"1818","remind","foam",27,2,25,3.881,30,0.75,0,1,0,0.675,"",NA,NA,NA
"1818","forest","knob",28,2,1,2.489,7,0.175,1,0,0,0.591,"Worm",0,NA,3.917
"1818","nerve","bumper",29,2,9,5.079,24,0.6,0,1,0,8.453,"",NA,NA,NA
"1818","collect","loyalty",30,2,100,4.938,39,0.975,0,0,1,0.582,"",NA,NA,NA
"1818","want","ascent",31,2,6,3.437,21,0.525,0,1,0,0.776,"",NA,NA,NA
"1818","need","faucet",32,2,1,2.921,10,0.25,1,0,0,0.865,"SKIP",0,NA,3.41
"1818","bleach","ruin",33,2,1,7.18,1,0.025,1,0,0,11.604,"SKIP",0,NA,2.613
"1818","caring","skirt",34,2,1,3.824,2,0.05,1,0,0,0.902,"Open",0,NA,4.604
"1818","bullet","walkway",35,2,57,3.101,34,0.85,0,0,1,0.783,"",NA,NA,NA
"1818","pork","emperor",36,2,29,2.05,31,0.775,0,0,1,0.643,"",NA,NA,NA
"1818","risk","zero",37,2,100,2.564,38,0.95,0,0,1,0.671,"",NA,NA,NA
"1818","bias","sirloin",38,2,1,2.1,13,0.325,1,1,1,0.621,"SKIP",0,NA,18.422
"1818","glue","force",39,2,8,2.469,23,0.575,0,1,0,0.794,"",NA,NA,NA
"1818","fee","chowder",40,2,1,2.989,8,0.2,1,0,0,0.636,"Transaction",0,NA,5.847
"1818","risk","zero",1,3,100,2.564,38,0.95,0,0,1,0.671,"",NA,NA,NA
"1818","smother","surgery",2,3,33,3.051,32,0.8,0,1,0,0.557,"",NA,NA,NA
"1818","fan","feature",3,3,1,2.062,4,0.1,1,0,0,0.817,"SKIP",0,NA,2.261
"1818","shrink","mafia",4,3,23,2.314,29,0.725,0,1,0,0.717,"",NA,NA,NA
"1818","nerve","bumper",5,3,9,5.079,24,0.6,0,1,0,8.453,"",NA,NA,NA
"1818","pork","emperor",6,3,29,2.05,31,0.775,0,0,1,0.643,"",NA,NA,NA
"1818","mill","feast",7,3,1,4.96,20,0.5,1,1,1,0.588,"SKIP",0,NA,2.023
"1818","banner","glide",8,3,7,3.789,22,0.55,0,1,0,0.89,"",NA,NA,NA
"1818","bias","sirloin",9,3,1,2.1,13,0.325,1,1,1,0.621,"SKIP",0,NA,2.374
"1818","rock","milk",10,3,1,2.079,9,0.225,1,0,0,0.71,"dirt",0,NA,3.258
"1818","calf","annoy",11,3,12,2.658,25,0.625,0,1,0,0.721,"",NA,NA,NA
"1818","prison","loaf",12,3,14,1.981,26,0.65,1,1,1,0.526,"Trap",0,NA,3.049
"1818","date","laugh",13,3,1,4.326,3,0.075,1,0,0,0.89,"SKIP",0,NA,2.223
"1818","remind","foam",14,3,25,3.881,30,0.75,0,1,0,0.675,"",NA,NA,NA
"1818","forest","knob",15,3,1,2.489,7,0.175,1,0,0,0.591,"Worm",0,NA,5.861
"1818","bleach","ruin",16,3,1,7.18,1,0.025,1,0,0,11.604,"SKIP",0,NA,2.106
"1818","need","faucet",17,3,1,2.921,10,0.25,1,0,0,0.865,"ascent",0,NA,3.044
"1818","replace","roach",18,3,17,3.023,27,0.675,0,1,0,0.749,"",NA,NA,NA
"1818","want","ascent",19,3,6,3.437,21,0.525,0,1,0,0.776,"",NA,NA,NA
"1818","anger","decay",20,3,100,2.069,40,1,0,0,1,0.626,"",NA,NA,NA
"1818","collect","loyalty",21,3,100,4.938,39,0.975,0,0,1,0.582,"",NA,NA,NA
"1818","plant","worm",22,3,18,1.978,28,0.7,0,0,1,0.533,"",NA,NA,NA
"1818","visit","glove",23,3,1,2.705,11,0.275,0,1,0,0.581,"",NA,NA,NA
"1818","fee","chowder",24,3,1,2.989,8,0.2,1,0,0,0.636,"Waive",0,NA,5.342
"1818","pea","bathtub",25,3,79,3.461,37,0.925,0,0,1,0.467,"",NA,NA,NA
"1818","port","cinema",26,3,1,1.773,17,0.425,1,1,1,0.634,"Commerce",0,NA,19.563
"1818","copy","bedroom",27,3,1,2.575,6,0.15,1,0,0,0.97,"SKIP",0,NA,7.383
"1818","caring","skirt",28,3,1,3.824,2,0.05,1,0,0,0.902,"SKIP",0,NA,5.063
"1818","grip","beach",29,3,1,5.03,5,0.125,1,0,0,0.483,"SKIP",0,NA,3.455
"1818","knock","otter",30,3,1,1.855,16,0.4,1,1,1,0.524,"open",0,NA,3.1
"1818","link","crisis",31,3,1,1.887,19,0.475,1,1,1,0.554,"SKIP",0,NA,3.643
"1818","glue","force",32,3,8,2.469,23,0.575,0,1,0,0.794,"",NA,NA,NA
"1818","bacon","feud",33,3,1,1.923,14,0.35,1,1,1,1.004,"grease",0,NA,5.481
"1818","find","clown",34,3,1,1.878,18,0.45,1,1,1,0.685,"SKIP",0,NA,3.951
"1818","chicken","beet",35,3,1,1.961,12,0.3,1,1,1,1.308,"SKIP",0,NA,5.499
"1818","capital","figure",36,3,59,6.744,35,0.875,0,0,1,0.678,"",NA,NA,NA
"1818","climax","saucer",37,3,39,6.516,33,0.825,0,0,1,0.664,"",NA,NA,NA
"1818","process","joker",38,3,1,1.968,15,0.375,1,1,1,0.561,"SKIP",0,NA,9.321
"1818","biology","temper",39,3,69,3.477,36,0.9,0,0,1,0.767,"",NA,NA,NA
"1818","bullet","walkway",40,3,57,3.101,34,0.85,0,0,1,0.783,"",NA,NA,NA
"2026","risk","zero",1,1,85,12.363,25,0.625,0,0,1,11.763,"",NA,NA,NA
"2026","bacon","feud",2,1,77,5.582,11,0.275,1,0,0,3.539,"feud",1,NA,195.426
"2026","bias","sirloin",3,1,99,3.395,40,1,0,1,0,1.33,"",NA,NA,NA
"2026","rock","milk",4,1,71,2.975,3,0.075,1,1,1,1.269,"milk",1,NA,182.225
"2026","find","clown",5,1,81,5.784,15,0.375,1,1,1,2.877,"clown",1,NA,8.953
"2026","port","cinema",6,1,92,3.204,36,0.9,0,0,1,1.855,"",NA,NA,NA
"2026","pork","emperor",7,1,85,4.991,26,0.65,0,0,1,1.479,"",NA,NA,NA
"2026","glue","force",8,1,95,3.662,38,0.95,0,1,0,1.35,"",NA,NA,NA
"2026","bullet","walkway",9,1,91,3.657,34,0.85,0,1,0,1.357,"",NA,NA,NA
"2026","visit","glove",10,1,83,3.029,22,0.55,1,1,1,1.425,"glove",1,NA,6.653
"2026","mill","feast",11,1,61,3.109,2,0.05,1,1,1,1.953,"feast",1,NA,10.004
"2026","need","faucet",12,1,86,4.052,30,0.75,0,0,1,2.197,"",NA,NA,NA
"2026","want","ascent",13,1,95,4.362,37,0.925,0,0,1,1.901,"",NA,NA,NA
"2026","climax","saucer",14,1,81,2.516,20,0.5,0,1,0,0.989,"",NA,NA,NA
"2026","plant","worm",15,1,78,2.688,13,0.325,1,0,0,1.221,"worm",1,NA,7.324
"2026","anger","decay",16,1,88,4.281,32,0.8,0,0,1,1.93,"",NA,NA,NA
"2026","chicken","beet",17,1,84,3.557,24,0.6,0,0,1,1.508,"",NA,NA,NA
"2026","pea","bathtub",18,1,76,2.474,10,0.25,1,1,1,1.496,"chowder",0,NA,7.216
"2026","replace","roach",19,1,71,2.82,4,0.1,1,0,0,1.936,"runway",0,NA,10.357
"2026","calf","annoy",20,1,81,2.743,19,0.475,0,1,0,1.286,"",NA,NA,NA
"2026","smother","surgery",21,1,80,2.53,14,0.35,1,0,0,1.175,"surgery",1,NA,124.225
"2026","copy","bedroom",22,1,81,2.947,16,0.4,1,1,1,1.39,"bedroom",1,NA,27.992
"2026","banner","glide",23,1,85,2.737,27,0.675,0,1,0,12.786,"",NA,NA,NA
"2026","nerve","bumper",24,1,71,3.047,5,0.125,1,0,0,1.574,"glove",0,NA,11.711
"2026","fan","feature",25,1,73,7.163,7,0.175,1,0,0,2.539,"feature",1,NA,8.045
"2026","process","joker",26,1,75,2.896,9,0.225,1,0,0,1.133,"loaf",0,NA,13.805
"2026","forest","knob",27,1,81,8.263,18,0.45,1,0,0,2.094,"knob",1,NA,10.341
"2026","shrink","mafia",28,1,73,2.597,6,0.15,1,1,1,1.818,"mafia",1,NA,6.264
"2026","biology","temper",29,1,81,2.768,21,0.525,0,1,0,1.468,"",NA,NA,NA
"2026","capital","figure",30,1,85,2.863,28,0.7,0,1,0,1.389,"",NA,NA,NA
"2026","date","laugh",31,1,78,3.236,12,0.3,1,0,0,1.461,"beets",0,NA,11.165
"2026","collect","loyalty",32,1,75,3.275,8,0.2,1,0,0,1.355,"loyalty",1,NA,9.042
"2026","caring","skirt",33,1,91,4.208,35,0.875,0,1,0,1.286,"",NA,NA,NA
"2026","grip","beach",34,1,84,3.33,23,0.575,1,1,1,1.531,"beach",1,NA,6.356
"2026","remind","foam",35,1,97,3.592,39,0.975,0,0,1,1.21,"",NA,NA,NA
"2026","bleach","ruin",36,1,81,2.61,17,0.425,1,1,1,1.513,"RUIN",0,NA,6.23
"2026","knock","otter",37,1,61,3.929,1,0.025,1,1,1,1.843,"otter",1,NA,8.463
"2026","prison","loaf",38,1,86,2.922,31,0.775,0,0,1,1.411,"",NA,NA,NA
"2026","fee","chowder",39,1,86,3.939,29,0.725,0,0,1,1.955,"",NA,NA,NA
"2026","link","crisis",40,1,89,4.487,33,0.825,0,1,0,1.766,"",NA,NA,NA
"2026","nerve","bumper",1,2,71,3.047,5,0.125,1,0,0,1.574,"decay",0,NA,55.259
"2026","smother","surgery",2,2,80,2.53,14,0.35,1,0,0,1.175,"surgery",1,NA,7.207
"2026","bacon","feud",3,2,77,5.582,11,0.275,1,0,0,3.539,"feud",1,NA,5.965
"2026","link","crisis",4,2,89,4.487,33,0.825,0,1,0,1.766,"",NA,NA,NA
"2026","bleach","ruin",5,2,81,2.61,17,0.425,1,1,1,1.513,"ruin",1,NA,5.222
"2026","want","ascent",6,2,95,4.362,37,0.925,0,0,1,1.901,"",NA,NA,NA
"2026","copy","bedroom",7,2,81,2.947,16,0.4,1,1,1,1.39,"bedroom",1,NA,8.301
"2026","grip","beach",8,2,84,3.33,23,0.575,1,1,1,1.531,"beaCH",0,NA,5.955
"2026","collect","loyalty",9,2,75,3.275,8,0.2,1,0,0,1.355,"loyalty",1,NA,7.469
"2026","climax","saucer",10,2,81,2.516,20,0.5,0,1,0,0.989,"",NA,NA,NA
"2026","fan","feature",11,2,73,7.163,7,0.175,1,0,0,2.539,"feature",1,NA,6.14
"2026","find","clown",12,2,81,5.784,15,0.375,1,1,1,2.877,"chowder",0,NA,10.09
"2026","bias","sirloin",13,2,99,3.395,40,1,0,1,0,1.33,"",NA,NA,NA
"2026","bullet","walkway",14,2,91,3.657,34,0.85,0,1,0,1.357,"",NA,NA,NA
"2026","caring","skirt",15,2,91,4.208,35,0.875,0,1,0,1.286,"",NA,NA,NA
"2026","biology","temper",16,2,81,2.768,21,0.525,0,1,0,1.468,"",NA,NA,NA
"2026","knock","otter",17,2,61,3.929,1,0.025,1,1,1,1.843,"otter",1,NA,23.185
"2026","shrink","mafia",18,2,73,2.597,6,0.15,1,1,1,1.818,"mafia",1,NA,6.877
"2026","process","joker",19,2,75,2.896,9,0.225,1,0,0,1.133,"emperor",0,NA,11.141
"2026","date","laugh",20,2,78,3.236,12,0.3,1,0,0,1.461,"bedroom",0,NA,9.783
"2026","plant","worm",21,2,78,2.688,13,0.325,1,0,0,1.221,"worm",1,NA,5.298
"2026","remind","foam",22,2,97,3.592,39,0.975,0,0,1,1.21,"",NA,NA,NA
"2026","fee","chowder",23,2,86,3.939,29,0.725,0,0,1,1.955,"",NA,NA,NA
"2026","port","cinema",24,2,92,3.204,36,0.9,0,0,1,1.855,"",NA,NA,NA
"2026","forest","knob",25,2,81,8.263,18,0.45,1,0,0,2.094,"knob",1,NA,5.84
"2026","anger","decay",26,2,88,4.281,32,0.8,0,0,1,1.93,"",NA,NA,NA
"2026","prison","loaf",27,2,86,2.922,31,0.775,0,0,1,1.411,"",NA,NA,NA
"2026","risk","zero",28,2,85,12.363,25,0.625,0,0,1,11.763,"",NA,NA,NA
"2026","banner","glide",29,2,85,2.737,27,0.675,0,1,0,12.786,"",NA,NA,NA
"2026","visit","glove",30,2,83,3.029,22,0.55,1,1,1,1.425,"glove",1,NA,10.872
"2026","capital","figure",31,2,85,2.863,28,0.7,0,1,0,1.389,"",NA,NA,NA
"2026","calf","annoy",32,2,81,2.743,19,0.475,0,1,0,1.286,"",NA,NA,NA
"2026","replace","roach",33,2,71,2.82,4,0.1,1,0,0,1.936,"feud",0,NA,11.331
"2026","rock","milk",34,2,71,2.975,3,0.075,1,1,1,1.269,"saucer",0,NA,10.699
"2026","mill","feast",35,2,61,3.109,2,0.05,1,1,1,1.953,"feast",1,NA,4.537
"2026","glue","force",36,2,95,3.662,38,0.95,0,1,0,1.35,"",NA,NA,NA
"2026","chicken","beet",37,2,84,3.557,24,0.6,0,0,1,1.508,"",NA,NA,NA
"2026","need","faucet",38,2,86,4.052,30,0.75,0,0,1,2.197,"",NA,NA,NA
"2026","pork","emperor",39,2,85,4.991,26,0.65,0,0,1,1.479,"",NA,NA,NA
"2026","pea","bathtub",40,2,76,2.474,10,0.25,1,1,1,1.496,"feud",0,NA,12.75
"2026","process","joker",1,3,75,2.896,9,0.225,1,0,0,1.133,"joker",1,NA,689.689
"2026","calf","annoy",2,3,81,2.743,19,0.475,0,1,0,1.286,"",NA,NA,NA
"2026","bullet","walkway",3,3,91,3.657,34,0.85,0,1,0,1.357,"",NA,NA,NA
"2026","want","ascent",4,3,95,4.362,37,0.925,0,0,1,1.901,"",NA,NA,NA
"2026","pea","bathtub",5,3,76,2.474,10,0.25,1,1,1,1.496,"bathtub",1,NA,7.059
"2026","bacon","feud",6,3,77,5.582,11,0.275,1,0,0,3.539,"feud",1,NA,3.936
"2026","remind","foam",7,3,97,3.592,39,0.975,0,0,1,1.21,"",NA,NA,NA
"2026","capital","figure",8,3,85,2.863,28,0.7,0,1,0,1.389,"",NA,NA,NA
"2026","glue","force",9,3,95,3.662,38,0.95,0,1,0,1.35,"",NA,NA,NA
"2026","climax","saucer",10,3,81,2.516,20,0.5,0,1,0,0.989,"",NA,NA,NA
"2026","find","clown",11,3,81,5.784,15,0.375,1,1,1,2.877,"clown",1,NA,10.303
"2026","nerve","bumper",12,3,71,3.047,5,0.125,1,0,0,1.574,"bumper",1,NA,11.789
"2026","banner","glide",13,3,85,2.737,27,0.675,0,1,0,12.786,"",NA,NA,NA
"2026","link","crisis",14,3,89,4.487,33,0.825,0,1,0,1.766,"",NA,NA,NA
"2026","shrink","mafia",15,3,73,2.597,6,0.15,1,1,1,1.818,"mafia",1,NA,14.47
"2026","bias","sirloin",16,3,99,3.395,40,1,0,1,0,1.33,"",NA,NA,NA
"2026","fee","chowder",17,3,86,3.939,29,0.725,0,0,1,1.955,"",NA,NA,NA
"2026","bleach","ruin",18,3,81,2.61,17,0.425,1,1,1,1.513,"ruin",1,NA,3.972
"2026","chicken","beet",19,3,84,3.557,24,0.6,0,0,1,1.508,"",NA,NA,NA
"2026","need","faucet",20,3,86,4.052,30,0.75,0,0,1,2.197,"",NA,NA,NA
"2026","visit","glove",21,3,83,3.029,22,0.55,1,1,1,1.425,"glove",1,NA,10.78
"2026","grip","beach",22,3,84,3.33,23,0.575,1,1,1,1.531,"beach",1,NA,9.684
"2026","mill","feast",23,3,61,3.109,2,0.05,1,1,1,1.953,"feast",1,NA,3.528
"2026","biology","temper",24,3,81,2.768,21,0.525,0,1,0,1.468,"",NA,NA,NA
"2026","knock","otter",25,3,61,3.929,1,0.025,1,1,1,1.843,"otter",1,NA,3.881
"2026","pork","emperor",26,3,85,4.991,26,0.65,0,0,1,1.479,"",NA,NA,NA
"2026","fan","feature",27,3,73,7.163,7,0.175,1,0,0,2.539,"feature",1,NA,4.562
"2026","smother","surgery",28,3,80,2.53,14,0.35,1,0,0,1.175,"surgery",1,NA,5.945
"2026","plant","worm",29,3,78,2.688,13,0.325,1,0,0,1.221,"worm",1,NA,4.274
"2026","port","cinema",30,3,92,3.204,36,0.9,0,0,1,1.855,"",NA,NA,NA
"2026","caring","skirt",31,3,91,4.208,35,0.875,0,1,0,1.286,"",NA,NA,NA
"2026","replace","roach",32,3,71,2.82,4,0.1,1,0,0,1.936,"roach",1,NA,7.746
"2026","risk","zero",33,3,85,12.363,25,0.625,0,0,1,11.763,"",NA,NA,NA
"2026","copy","bedroom",34,3,81,2.947,16,0.4,1,1,1,1.39,"bedroom",1,NA,11.452
"2026","forest","knob",35,3,81,8.263,18,0.45,1,0,0,2.094,"knob",1,NA,4.383
"2026","prison","loaf",36,3,86,2.922,31,0.775,0,0,1,1.411,"",NA,NA,NA
"2026","rock","milk",37,3,71,2.975,3,0.075,1,1,1,1.269,"milk",1,NA,4.547
"2026","collect","loyalty",38,3,75,3.275,8,0.2,1,0,0,1.355,"loyalty",1,NA,8.338
"2026","anger","decay",39,3,88,4.281,32,0.8,0,0,1,1.93,"",NA,NA,NA
"2026","date","laugh",40,3,78,3.236,12,0.3,1,0,0,1.461,"laugh",1,NA,16.185
"2163","forest","knob",1,1,62,2.675,33,0.825,1,1,1,1.527,"skip",0,NA,16.799
"2163","replace","roach",2,1,41,1.695,29,0.725,1,1,1,2.795,"skip",0,NA,4.475
"2163","shrink","mafia",3,1,63,1.859,34,0.85,1,1,1,0.843,"ruin",0,NA,5.114
"2163","bleach","ruin",4,1,65,3.115,35,0.875,1,1,1,2.367,"ruin",1,NA,4.244
"2163","smother","surgery",5,1,61,2.902,32,0.8,1,0,0,1.159,"skip",0,NA,6.399
"2163","date","laugh",6,1,78,3.611,40,1,1,1,1,1.367,"laugh",1,NA,5.091
"2163","caring","skirt",7,1,40,2.339,27,0.675,0,0,1,1.767,"",NA,NA,NA
"2163","mill","feast",8,1,26,2.319,11,0.275,0,1,0,1.471,"",NA,NA,NA
"2163","copy","bedroom",9,1,75,4.538,39,0.975,1,1,1,1.911,"bedroom",1,NA,8.766
"2163","grip","beach",10,1,34,2.223,21,0.525,0,0,1,0.971,"",NA,NA,NA
"2163","risk","zero",11,1,21,1.895,4,0.1,0,1,0,1.371,"",NA,NA,NA
"2163","biology","temper",12,1,28,2.823,17,0.425,0,0,1,1.015,"",NA,NA,NA
"2163","climax","saucer",13,1,72,3.659,37,0.925,1,1,1,1.035,"saucer",1,NA,7.596
"2163","need","faucet",14,1,28,2.131,15,0.375,1,0,0,1.271,"skip",0,NA,4.199
"2163","fee","chowder",15,1,34,2.759,20,0.5,0,0,1,2.703,"",NA,NA,NA
"2163","pork","emperor",16,1,36,2.483,23,0.575,1,0,0,1.583,"skip",0,NA,7.696
"2163","plant","worm",17,1,34,5.502,19,0.475,1,0,0,1.115,"skip",0,NA,4.223
"2163","capital","figure",18,1,38,4.511,25,0.625,1,0,0,2.951,"skip",0,NA,5.159
"2163","banner","glide",19,1,25,2.342,10,0.25,0,1,0,1.051,"",NA,NA,NA
"2163","collect","loyalty",20,1,23,2.315,6,0.15,0,1,0,1.051,"",NA,NA,NA
"2163","glue","force",21,1,27,1.839,13,0.325,0,0,1,0.863,"",NA,NA,NA
"2163","bacon","feud",22,1,28,4.323,16,0.4,1,0,0,1.087,"skip",0,NA,10.288
"2163","bullet","walkway",23,1,16,4.671,1,0.025,0,1,0,0.911,"",NA,NA,NA
"2163","pea","bathtub",24,1,36,2.395,24,0.6,0,0,1,1.931,"",NA,NA,NA
"2163","remind","foam",25,1,23,2.431,5,0.125,0,1,0,1.799,"",NA,NA,NA
"2163","fan","feature",26,1,24,2.359,7,0.175,0,1,0,1.171,"",NA,NA,NA
"2163","rock","milk",27,1,26,1.927,12,0.3,0,0,1,0.871,"",NA,NA,NA
"2163","link","crisis",28,1,73,3.011,38,0.95,1,1,1,2.295,"skip",0,NA,4.761
"2163","anger","decay",29,1,57,14.07,31,0.775,1,0,0,13.862,"biology",0,NA,5.831
"2163","bias","sirloin",30,1,24,2.075,8,0.2,0,1,0,1.027,"",NA,NA,NA
"2163","port","cinema",31,1,44,2.455,30,0.75,1,1,1,0.971,"city",0,NA,6.684
"2163","chicken","beet",32,1,28,36.95,14,0.35,1,0,0,1.139,"skip",0,NA,5.512
"2163","knock","otter",33,1,32,2.555,18,0.45,0,0,1,2.467,"",NA,NA,NA
"2163","process","joker",34,1,40,2.423,26,0.65,1,0,0,1.695,"milk",0,NA,5.491
"2163","calf","annoy",35,1,36,2.555,22,0.55,1,0,0,5.695,"annoy",1,NA,5.039
"2163","find","clown",36,1,21,2.635,3,0.075,0,1,0,1.08,"",NA,NA,NA
"2163","visit","glove",37,1,40,2.295,28,0.7,0,0,1,1.107,"",NA,NA,NA
"2163","want","ascent",38,1,17,2.102,2,0.05,0,1,0,1.178,"",NA,NA,NA
"2163","prison","loaf",39,1,69,3.774,36,0.9,1,1,1,0.952,"bread",0,NA,5.182
"2163","nerve","bumper",40,1,24,1.863,9,0.225,0,0,1,1.079,"",NA,NA,NA
"2163","mill","feast",1,2,26,2.319,11,0.275,0,1,0,1.471,"",NA,NA,NA
"2163","need","faucet",2,2,28,2.131,15,0.375,1,0,0,1.271,"skip",0,NA,5.148
"2163","bacon","feud",3,2,28,4.323,16,0.4,1,0,0,1.087,"skip",0,NA,5.295
"2163","calf","annoy",4,2,36,2.555,22,0.55,1,0,0,5.695,"annoy",1,NA,4.247
"2163","anger","decay",5,2,57,14.07,31,0.775,1,0,0,13.862,"biology",0,NA,4.899
"2163","replace","roach",6,2,41,1.695,29,0.725,1,1,1,2.795,"skip",0,NA,5.263
"2163","capital","figure",7,2,38,4.511,25,0.625,1,0,0,2.951,"skip",0,NA,3.663
"2163","glue","force",8,2,27,1.839,13,0.325,0,0,1,0.863,"",NA,NA,NA
"2163","banner","glide",9,2,25,2.342,10,0.25,0,1,0,1.051,"",NA,NA,NA
"2163","plant","worm",10,2,34,5.502,19,0.475,1,0,0,1.115,"skip",0,NA,4.568
"2163","bleach","ruin",11,2,65,3.115,35,0.875,1,1,1,2.367,"ruin",1,NA,4.047
"2163","shrink","mafia",12,2,63,1.859,34,0.85,1,1,1,0.843,"beach",0,NA,6.975
"2163","chicken","beet",13,2,28,36.95,14,0.35,1,0,0,1.139,"skip",0,NA,4.939
"2163","pea","bathtub",14,2,36,2.395,24,0.6,0,0,1,1.931,"",NA,NA,NA
"2163","want","ascent",15,2,17,2.102,2,0.05,0,1,0,1.178,"",NA,NA,NA
"2163","copy","bedroom",16,2,75,4.538,39,0.975,1,1,1,1.911,"bedroom",1,NA,5.992
"2163","link","crisis",17,2,73,3.011,38,0.95,1,1,1,2.295,"skip",0,NA,5.903
"2163","remind","foam",18,2,23,2.431,5,0.125,0,1,0,1.799,"",NA,NA,NA
"2163","fan","feature",19,2,24,2.359,7,0.175,0,1,0,1.171,"",NA,NA,NA
"2163","process","joker",20,2,40,2.423,26,0.65,1,0,0,1.695,"skip",0,NA,3.851
"2163","smother","surgery",21,2,61,2.902,32,0.8,1,0,0,1.159,"skip",0,NA,3.431
"2163","bias","sirloin",22,2,24,2.075,8,0.2,0,1,0,1.027,"",NA,NA,NA
"2163","grip","beach",23,2,34,2.223,21,0.525,0,0,1,0.971,"",NA,NA,NA
"2163","fee","chowder",24,2,34,2.759,20,0.5,0,0,1,2.703,"",NA,NA,NA
"2163","biology","temper",25,2,28,2.823,17,0.425,0,0,1,1.015,"",NA,NA,NA
"2163","forest","knob",26,2,62,2.675,33,0.825,1,1,1,1.527,"skip",0,NA,7.332
"2163","find","clown",27,2,21,2.635,3,0.075,0,1,0,1.08,"",NA,NA,NA
"2163","date","laugh",28,2,78,3.611,40,1,1,1,1,1.367,"laugh",1,NA,5.24
"2163","knock","otter",29,2,32,2.555,18,0.45,0,0,1,2.467,"",NA,NA,NA
"2163","bullet","walkway",30,2,16,4.671,1,0.025,0,1,0,0.911,"",NA,NA,NA
"2163","port","cinema",31,2,44,2.455,30,0.75,1,1,1,0.971,"skip",0,NA,4.935
"2163","pork","emperor",32,2,36,2.483,23,0.575,1,0,0,1.583,"skip",0,NA,3.823
"2163","risk","zero",33,2,21,1.895,4,0.1,0,1,0,1.371,"",NA,NA,NA
"2163","rock","milk",34,2,26,1.927,12,0.3,0,0,1,0.871,"",NA,NA,NA
"2163","nerve","bumper",35,2,24,1.863,9,0.225,0,0,1,1.079,"",NA,NA,NA
"2163","collect","loyalty",36,2,23,2.315,6,0.15,0,1,0,1.051,"",NA,NA,NA
"2163","climax","saucer",37,2,72,3.659,37,0.925,1,1,1,1.035,"saucer",1,NA,5.894
"2163","caring","skirt",38,2,40,2.339,27,0.675,0,0,1,1.767,"",NA,NA,NA
"2163","prison","loaf",39,2,69,3.774,36,0.9,1,1,1,0.952,"bread",0,NA,4.346
"2163","visit","glove",40,2,40,2.295,28,0.7,0,0,1,1.107,"",NA,NA,NA
"2163","prison","loaf",1,3,69,3.774,36,0.9,1,1,1,0.952,"bread",0,NA,4.731
"2163","process","joker",2,3,40,2.423,26,0.65,1,0,0,1.695,"skip",0,NA,3.491
"2163","chicken","beet",3,3,28,36.95,14,0.35,1,0,0,1.139,"skip",0,NA,3.426
"2163","bacon","feud",4,3,28,4.323,16,0.4,1,0,0,1.087,"skip",0,NA,3.391
"2163","replace","roach",5,3,41,1.695,29,0.725,1,1,1,2.795,"skip",0,NA,3.395
"2163","bias","sirloin",6,3,24,2.075,8,0.2,0,1,0,1.027,"",NA,NA,NA
"2163","smother","surgery",7,3,61,2.902,32,0.8,1,0,0,1.159,"skip",0,NA,4.047
"2163","calf","annoy",8,3,36,2.555,22,0.55,1,0,0,5.695,"annoy",1,NA,3.799
"2163","fan","feature",9,3,24,2.359,7,0.175,0,1,0,1.171,"",NA,NA,NA
"2163","copy","bedroom",10,3,75,4.538,39,0.975,1,1,1,1.911,"bedroom",1,NA,5.278
"2163","rock","milk",11,3,26,1.927,12,0.3,0,0,1,0.871,"",NA,NA,NA
"2163","knock","otter",12,3,32,2.555,18,0.45,0,0,1,2.467,"",NA,NA,NA
"2163","grip","beach",13,3,34,2.223,21,0.525,0,0,1,0.971,"",NA,NA,NA
"2163","fee","chowder",14,3,34,2.759,20,0.5,0,0,1,2.703,"",NA,NA,NA
"2163","visit","glove",15,3,40,2.295,28,0.7,0,0,1,1.107,"",NA,NA,NA
"2163","bleach","ruin",16,3,65,3.115,35,0.875,1,1,1,2.367,"ruin",1,NA,5.165
"2163","capital","figure",17,3,38,4.511,25,0.625,1,0,0,2.951,"skip",0,NA,4.363
"2163","need","faucet",18,3,28,2.131,15,0.375,1,0,0,1.271,"skip",0,NA,3.376
"2163","mill","feast",19,3,26,2.319,11,0.275,0,1,0,1.471,"",NA,NA,NA
"2163","risk","zero",20,3,21,1.895,4,0.1,0,1,0,1.371,"",NA,NA,NA
"2163","collect","loyalty",21,3,23,2.315,6,0.15,0,1,0,1.051,"",NA,NA,NA
"2163","forest","knob",22,3,62,2.675,33,0.825,1,1,1,1.527,"skip",0,NA,3.82
"2163","nerve","bumper",23,3,24,1.863,9,0.225,0,0,1,1.079,"",NA,NA,NA
"2163","date","laugh",24,3,78,3.611,40,1,1,1,1,1.367,"laugh",1,NA,5.736
"2163","plant","worm",25,3,34,5.502,19,0.475,1,0,0,1.115,"skip",0,NA,4.135
"2163","pork","emperor",26,3,36,2.483,23,0.575,1,0,0,1.583,"skip",0,NA,3.724
"2163","caring","skirt",27,3,40,2.339,27,0.675,0,0,1,1.767,"",NA,NA,NA
"2163","port","cinema",28,3,44,2.455,30,0.75,1,1,1,0.971,"skip",0,NA,4.002
"2163","banner","glide",29,3,25,2.342,10,0.25,0,1,0,1.051,"",NA,NA,NA
"2163","climax","saucer",30,3,72,3.659,37,0.925,1,1,1,1.035,"saucer",1,NA,5.841
"2163","link","crisis",31,3,73,3.011,38,0.95,1,1,1,2.295,"skip",0,NA,3.663
"2163","shrink","mafia",32,3,63,1.859,34,0.85,1,1,1,0.843,"beach",0,NA,8.971
"2163","pea","bathtub",33,3,36,2.395,24,0.6,0,0,1,1.931,"",NA,NA,NA
"2163","remind","foam",34,3,23,2.431,5,0.125,0,1,0,1.799,"",NA,NA,NA
"2163","biology","temper",35,3,28,2.823,17,0.425,0,0,1,1.015,"",NA,NA,NA
"2163","find","clown",36,3,21,2.635,3,0.075,0,1,0,1.08,"",NA,NA,NA
"2163","want","ascent",37,3,17,2.102,2,0.05,0,1,0,1.178,"",NA,NA,NA
"2163","anger","decay",38,3,57,14.07,31,0.775,1,0,0,13.862,"biology",0,NA,6.91
"2163","bullet","walkway",39,3,16,4.671,1,0.025,0,1,0,0.911,"",NA,NA,NA
"2163","glue","force",40,3,27,1.839,13,0.325,0,0,1,0.863,"",NA,NA,NA
"2237","need","faucet",1,1,1,2.871,4,0.1,0,1,0,1.44,"",NA,NA,NA
"2237","fan","feature",2,1,1,4.783,1,0.025,0,1,0,1.207,"",NA,NA,NA
"2237","bullet","walkway",3,1,10,11.072,33,0.825,1,1,1,1.104,"sidewalk",0,NA,6.516
"2237","copy","bedroom",4,1,1,3.534,9,0.225,0,1,0,0.767,"",NA,NA,NA
"2237","knock","otter",5,1,1,1.872,23,0.575,0,0,1,1.856,"",NA,NA,NA
"2237","climax","saucer",6,1,50,11.446,40,1,1,1,1,19.367,"saucer",1,NA,5.885
"2237","pea","bathtub",7,1,30,11.176,37,0.925,1,1,1,0.832,"bathtub",1,NA,5.24
"2237","rock","milk",8,1,30,6.528,36,0.9,1,1,1,1.68,"milk",1,NA,4.175
"2237","plant","worm",9,1,1,2.394,21,0.525,0,0,1,0.864,"",NA,NA,NA
"2237","glue","force",10,1,1,6.983,16,0.4,1,0,0,1.046,"golf",0,NA,44.622
"2237","bacon","feud",11,1,1,5.696,14,0.35,1,0,0,0.672,"ballet",0,NA,21.272
"2237","remind","foam",12,1,1,2.055,29,0.725,1,1,1,0.864,"word",0,NA,24.272
"2237","bias","sirloin",13,1,1,4.888,25,0.625,0,0,1,0.615,"",NA,NA,NA
"2237","nerve","bumper",14,1,1,2.774,24,0.6,0,0,1,1.031,"",NA,NA,NA
"2237","pork","emperor",15,1,35,10.191,39,0.975,1,1,1,0.944,"emporer",0,NA,6.222
"2237","find","clown",16,1,1,2.182,27,0.675,0,0,1,0.959,"",NA,NA,NA
"2237","grip","beach",17,1,1,4.96,6,0.15,0,1,0,1.439,"",NA,NA,NA
"2237","want","ascent",18,1,1,4.28,10,0.25,0,1,0,0.935,"",NA,NA,NA
"2237","calf","annoy",19,1,1,7.04,30,0.75,1,1,1,0.847,"annoy",1,NA,9.588
"2237","fee","chowder",20,1,1,3.216,3,0.075,0,1,0,1.191,"",NA,NA,NA
"2237","collect","loyalty",21,1,1,2.136,22,0.55,0,0,1,0.76,"",NA,NA,NA
"2237","prison","loaf",22,1,1,3.207,26,0.65,0,0,1,0.887,"",NA,NA,NA
"2237","mill","feast",23,1,1,2.863,18,0.45,1,0,0,0.992,"plant",0,NA,25.427
"2237","anger","decay",24,1,1,2.871,13,0.325,1,0,0,1.159,"diary",0,NA,9.031
"2237","forest","knob",25,1,1,6.759,15,0.375,1,0,0,4.168,"skip",0,NA,18.846
"2237","date","laugh",26,1,5,12.902,31,0.775,1,0,0,0.896,"long",0,NA,8.647
"2237","replace","roach",27,1,1,3.648,17,0.425,1,0,0,1.04,"skip",0,NA,16.448
"2237","risk","zero",28,1,1,2.64,28,0.7,0,0,1,0.848,"",NA,NA,NA
"2237","shrink","mafia",29,1,1,2.911,11,0.275,1,0,0,0.696,"skip",0,NA,9.728
"2237","banner","glide",30,1,1,4.96,19,0.475,0,0,1,1.536,"",NA,NA,NA
"2237","smother","surgery",31,1,1,5.76,5,0.125,0,1,0,1.119,"",NA,NA,NA
"2237","biology","temper",32,1,1,6.976,8,0.2,0,1,0,1.143,"",NA,NA,NA
"2237","link","crisis",33,1,35,24.775,38,0.95,1,0,0,2.182,"frantic",0,NA,17.324
"2237","port","cinema",34,1,20,8.136,35,0.875,1,1,1,2.199,"skip",0,NA,11.12
"2237","capital","figure",35,1,1,5.679,12,0.3,1,0,0,1.087,"skip",0,NA,22.608
"2237","caring","skirt",36,1,1,5.102,2,0.05,0,1,0,1.342,"",NA,NA,NA
"2237","visit","glove",37,1,1,3.528,7,0.175,0,1,0,0.776,"",NA,NA,NA
"2237","bleach","ruin",38,1,10,11.447,34,0.85,1,1,1,0.792,"skip",0,NA,21.974
"2237","chicken","beet",39,1,10,15.454,32,0.8,1,1,1,0.967,"beet",1,NA,4.367
"2237","process","joker",40,1,1,8.166,20,0.5,0,0,1,1.452,"",NA,NA,NA
"2237","replace","roach",1,2,1,3.648,17,0.425,1,0,0,1.04,"skip",0,NA,33.654
"2237","collect","loyalty",2,2,1,2.136,22,0.55,0,0,1,0.76,"",NA,NA,NA
"2237","chicken","beet",3,2,10,15.454,32,0.8,1,1,1,0.967,"beet",1,NA,3.775
"2237","forest","knob",4,2,1,6.759,15,0.375,1,0,0,4.168,"skip",0,NA,7.039
"2237","prison","loaf",5,2,1,3.207,26,0.65,0,0,1,0.887,"",NA,NA,NA
"2237","plant","worm",6,2,1,2.394,21,0.525,0,0,1,0.864,"",NA,NA,NA
"2237","shrink","mafia",7,2,1,2.911,11,0.275,1,0,0,0.696,"skip",0,NA,7.439
"2237","pea","bathtub",8,2,30,11.176,37,0.925,1,1,1,0.832,"bathtub",1,NA,4.831
"2237","rock","milk",9,2,30,6.528,36,0.9,1,1,1,1.68,"milk",1,NA,3.808
"2237","fee","chowder",10,2,1,3.216,3,0.075,0,1,0,1.191,"",NA,NA,NA
"2237","biology","temper",11,2,1,6.976,8,0.2,0,1,0,1.143,"",NA,NA,NA
"2237","find","clown",12,2,1,2.182,27,0.675,0,0,1,0.959,"",NA,NA,NA
"2237","visit","glove",13,2,1,3.528,7,0.175,0,1,0,0.776,"",NA,NA,NA
"2237","fan","feature",14,2,1,4.783,1,0.025,0,1,0,1.207,"",NA,NA,NA
"2237","caring","skirt",15,2,1,5.102,2,0.05,0,1,0,1.342,"",NA,NA,NA
"2237","climax","saucer",16,2,50,11.446,40,1,1,1,1,19.367,"saucer",1,NA,4.417
"2237","anger","decay",17,2,1,2.871,13,0.325,1,0,0,1.159,"skip",0,NA,6.639
"2237","banner","glide",18,2,1,4.96,19,0.475,0,0,1,1.536,"",NA,NA,NA
"2237","mill","feast",19,2,1,2.863,18,0.45,1,0,0,0.992,"skip",0,NA,5.83
"2237","process","joker",20,2,1,8.166,20,0.5,0,0,1,1.452,"",NA,NA,NA
"2237","link","crisis",21,2,35,24.775,38,0.95,1,0,0,2.182,"frantic",0,NA,5.159
"2237","port","cinema",22,2,20,8.136,35,0.875,1,1,1,2.199,"skip",0,NA,4.152
"2237","smother","surgery",23,2,1,5.76,5,0.125,0,1,0,1.119,"",NA,NA,NA
"2237","capital","figure",24,2,1,5.679,12,0.3,1,0,0,1.087,"skip",0,NA,3.646
"2237","need","faucet",25,2,1,2.871,4,0.1,0,1,0,1.44,"",NA,NA,NA
"2237","want","ascent",26,2,1,4.28,10,0.25,0,1,0,0.935,"",NA,NA,NA
"2237","date","laugh",27,2,5,12.902,31,0.775,1,0,0,0.896,"skip",0,NA,3.726
"2237","bleach","ruin",28,2,10,11.447,34,0.85,1,1,1,0.792,"skip",0,NA,3.847
"2237","calf","annoy",29,2,1,7.04,30,0.75,1,1,1,0.847,"annoy",1,NA,4.328
"2237","bacon","feud",30,2,1,5.696,14,0.35,1,0,0,0.672,"skip",0,NA,6.367
"2237","nerve","bumper",31,2,1,2.774,24,0.6,0,0,1,1.031,"",NA,NA,NA
"2237","glue","force",32,2,1,6.983,16,0.4,1,0,0,1.046,"skip",0,NA,3.79
"2237","grip","beach",33,2,1,4.96,6,0.15,0,1,0,1.439,"",NA,NA,NA
"2237","risk","zero",34,2,1,2.64,28,0.7,0,0,1,0.848,"",NA,NA,NA
"2237","bias","sirloin",35,2,1,4.888,25,0.625,0,0,1,0.615,"",NA,NA,NA
"2237","knock","otter",36,2,1,1.872,23,0.575,0,0,1,1.856,"",NA,NA,NA
"2237","bullet","walkway",37,2,10,11.072,33,0.825,1,1,1,1.104,"sidewalk",0,NA,5.773
"2237","copy","bedroom",38,2,1,3.534,9,0.225,0,1,0,0.767,"",NA,NA,NA
"2237","remind","foam",39,2,1,2.055,29,0.725,1,1,1,0.864,"skip",0,NA,3.671
"2237","pork","emperor",40,2,35,10.191,39,0.975,1,1,1,0.944,"emporer",0,NA,4.895
"2237","pea","bathtub",1,3,30,11.176,37,0.925,1,1,1,0.832,"bathtub",1,NA,5.55
"2237","plant","worm",2,3,1,2.394,21,0.525,0,0,1,0.864,"",NA,NA,NA
"2237","grip","beach",3,3,1,4.96,6,0.15,0,1,0,1.439,"",NA,NA,NA
"2237","want","ascent",4,3,1,4.28,10,0.25,0,1,0,0.935,"",NA,NA,NA
"2237","process","joker",5,3,1,8.166,20,0.5,0,0,1,1.452,"",NA,NA,NA
"2237","shrink","mafia",6,3,1,2.911,11,0.275,1,0,0,0.696,"skip",0,NA,3.878
"2237","collect","loyalty",7,3,1,2.136,22,0.55,0,0,1,0.76,"",NA,NA,NA
"2237","rock","milk",8,3,30,6.528,36,0.9,1,1,1,1.68,"milk",1,NA,4.855
"2237","port","cinema",9,3,20,8.136,35,0.875,1,1,1,2.199,"skip",0,NA,3.848
"2237","mill","feast",10,3,1,2.863,18,0.45,1,0,0,0.992,"skip",0,NA,3
"2237","find","clown",11,3,1,2.182,27,0.675,0,0,1,0.959,"",NA,NA,NA
"2237","fee","chowder",12,3,1,3.216,3,0.075,0,1,0,1.191,"",NA,NA,NA
"2237","copy","bedroom",13,3,1,3.534,9,0.225,0,1,0,0.767,"",NA,NA,NA
"2237","banner","glide",14,3,1,4.96,19,0.475,0,0,1,1.536,"",NA,NA,NA
"2237","need","faucet",15,3,1,2.871,4,0.1,0,1,0,1.44,"",NA,NA,NA
"2237","bleach","ruin",16,3,10,11.447,34,0.85,1,1,1,0.792,"skip",0,NA,4.193
"2237","bullet","walkway",17,3,10,11.072,33,0.825,1,1,1,1.104,"sidewalk",0,NA,4.392
"2237","caring","skirt",18,3,1,5.102,2,0.05,0,1,0,1.342,"",NA,NA,NA
"2237","remind","foam",19,3,1,2.055,29,0.725,1,1,1,0.864,"skip",0,NA,4.999
"2237","date","laugh",20,3,5,12.902,31,0.775,1,0,0,0.896,"skip",0,NA,4.272
"2237","chicken","beet",21,3,10,15.454,32,0.8,1,1,1,0.967,"beet",1,NA,3.383
"2237","prison","loaf",22,3,1,3.207,26,0.65,0,0,1,0.887,"",NA,NA,NA
"2237","fan","feature",23,3,1,4.783,1,0.025,0,1,0,1.207,"",NA,NA,NA
"2237","anger","decay",24,3,1,2.871,13,0.325,1,0,0,1.159,"skip",0,NA,3.677
"2237","capital","figure",25,3,1,5.679,12,0.3,1,0,0,1.087,"skip",0,NA,4.744
"2237","pork","emperor",26,3,35,10.191,39,0.975,1,1,1,0.944,"emporer",0,NA,4.647
"2237","biology","temper",27,3,1,6.976,8,0.2,0,1,0,1.143,"",NA,NA,NA
"2237","replace","roach",28,3,1,3.648,17,0.425,1,0,0,1.04,"skip",0,NA,3.672
"2237","bias","sirloin",29,3,1,4.888,25,0.625,0,0,1,0.615,"",NA,NA,NA
"2237","bacon","feud",30,3,1,5.696,14,0.35,1,0,0,0.672,"skip",0,NA,3.743
"2237","climax","saucer",31,3,50,11.446,40,1,1,1,1,19.367,"saucer",1,NA,3.401
"2237","glue","force",32,3,1,6.983,16,0.4,1,0,0,1.046,"skip",0,NA,5.111
"2237","visit","glove",33,3,1,3.528,7,0.175,0,1,0,0.776,"",NA,NA,NA
"2237","risk","zero",34,3,1,2.64,28,0.7,0,0,1,0.848,"",NA,NA,NA
"2237","calf","annoy",35,3,1,7.04,30,0.75,1,1,1,0.847,"annoy",1,NA,5.645
"2237","forest","knob",36,3,1,6.759,15,0.375,1,0,0,4.168,"skip",0,NA,3.695
"2237","nerve","bumper",37,3,1,2.774,24,0.6,0,0,1,1.031,"",NA,NA,NA
"2237","knock","otter",38,3,1,1.872,23,0.575,0,0,1,1.856,"",NA,NA,NA
"2237","link","crisis",39,3,35,24.775,38,0.95,1,0,0,2.182,"frantic",0,NA,4.862
"2237","smother","surgery",40,3,1,5.76,5,0.125,0,1,0,1.119,"",NA,NA,NA
"2341","fan","feature",1,1,25,1.524,14,0.35,0,1,0,0.497,"",NA,NA,NA
"2341","bacon","feud",2,1,35,1.623,34,0.85,1,0,0,0.652,"boat",0,NA,8.285
"2341","bias","sirloin",3,1,19,1.229,5,0.125,0,0,1,0.805,"",NA,NA,NA
"2341","calf","annoy",4,1,19,0.967,4,0.1,0,0,1,0.576,"",NA,NA,NA
"2341","capital","figure",5,1,27,2.971,16,0.4,1,1,1,0.515,"brigade",0,NA,3.857
"2341","chicken","beet",6,1,24,1.661,12,0.3,0,0,1,0.557,"",NA,NA,NA
"2341","remind","foam",7,1,30,2.093,20,0.5,1,1,1,0.687,"window",0,NA,3.035
"2341","plant","worm",8,1,21,0.965,7,0.175,0,1,0,0.677,"",NA,NA,NA
"2341","caring","skirt",9,1,35,1.719,32,0.8,1,1,1,0.465,"skip",0,NA,7.252
"2341","fee","chowder",10,1,32,1.151,27,0.675,1,1,1,0.611,"skip",0,NA,4.085
"2341","copy","bedroom",11,1,29,0.817,19,0.475,0,1,0,0.529,"",NA,NA,NA
"2341","mill","feast",12,1,31,1.065,24,0.6,0,1,0,0.526,"",NA,NA,NA
"2341","port","cinema",13,1,16,1.346,2,0.05,0,0,1,0.477,"",NA,NA,NA
"2341","need","faucet",14,1,25,1.551,13,0.325,1,1,1,0.58,"skip",0,NA,4.028
"2341","date","laugh",15,1,22,1.493,10,0.25,0,1,0,0.647,"",NA,NA,NA
"2341","smother","surgery",16,1,36,1.917,35,0.875,1,0,0,1.039,"skip",0,NA,7.749
"2341","find","clown",17,1,35,1.963,33,0.825,1,0,0,0.961,"key",0,NA,5.551
"2341","pea","bathtub",18,1,22,1.125,8,0.2,0,0,1,0.553,"",NA,NA,NA
"2341","bullet","walkway",19,1,34,1.195,30,0.75,1,0,0,0.599,"camera",0,NA,4.286
"2341","pork","emperor",20,1,26,0.927,15,0.375,0,1,0,0.535,"",NA,NA,NA
"2341","collect","loyalty",21,1,37,1.065,37,0.925,1,0,0,0.777,"skip",0,NA,3.713
"2341","rock","milk",22,1,30,1.171,23,0.575,0,1,0,0.575,"",NA,NA,NA
"2341","knock","otter",23,1,57,1.515,40,1,1,1,1,0.533,"skip",0,NA,4.746
"2341","link","crisis",24,1,35,1.075,31,0.775,1,1,1,3.775,"skip",0,NA,4.721
"2341","biology","temper",25,1,41,1.171,38,0.95,1,0,0,0.545,"skip",0,NA,3.139
"2341","shrink","mafia",26,1,28,1.039,18,0.45,0,1,0,0.463,"",NA,NA,NA
"2341","replace","roach",27,1,7,3.539,1,0.025,0,0,1,6.741,"",NA,NA,NA
"2341","nerve","bumper",28,1,45,1.269,39,0.975,1,0,0,0.554,"car",0,NA,10.028
"2341","glue","force",29,1,32,1.418,26,0.65,1,1,1,0.559,"tree",0,NA,7.768
"2341","process","joker",30,1,36,1.845,36,0.9,1,0,0,0.423,"skip",0,NA,2.153
"2341","risk","zero",31,1,30,1.409,21,0.525,1,1,1,0.781,"skip",0,NA,2.063
"2341","anger","decay",32,1,18,2.878,3,0.075,0,0,1,0.817,"",NA,NA,NA
"2341","visit","glove",33,1,32,1.151,28,0.7,1,0,0,0.511,"computer",0,NA,4.719
"2341","forest","knob",34,1,21,1.225,6,0.15,0,0,1,0.597,"",NA,NA,NA
"2341","bleach","ruin",35,1,32,1.327,25,0.625,1,1,1,0.601,"skip",0,NA,4.463
"2341","banner","glide",36,1,22,1.175,9,0.225,0,0,1,0.679,"",NA,NA,NA
"2341","prison","loaf",37,1,30,1.239,22,0.55,0,1,0,0.556,"",NA,NA,NA
"2341","climax","saucer",38,1,23,1.441,11,0.275,0,0,1,0.561,"",NA,NA,NA
"2341","want","ascent",39,1,27,1.033,17,0.425,0,1,0,0.493,"",NA,NA,NA
"2341","grip","beach",40,1,33,1.465,29,0.725,1,0,0,0.489,"tooth",0,NA,3.783
"2341","bias","sirloin",1,2,19,1.229,5,0.125,0,0,1,0.805,"",NA,NA,NA
"2341","pork","emperor",2,2,26,0.927,15,0.375,0,1,0,0.535,"",NA,NA,NA
"2341","smother","surgery",3,2,36,1.917,35,0.875,1,0,0,1.039,"skip",0,NA,7.325
"2341","find","clown",4,2,35,1.963,33,0.825,1,0,0,0.961,"skipp",0,NA,2.257
"2341","risk","zero",5,2,30,1.409,21,0.525,1,1,1,0.781,"skip",0,NA,2.277
"2341","knock","otter",6,2,57,1.515,40,1,1,1,1,0.533,"skip",0,NA,1.939
"2341","rock","milk",7,2,30,1.171,23,0.575,0,1,0,0.575,"",NA,NA,NA
"2341","capital","figure",8,2,27,2.971,16,0.4,1,1,1,0.515,"bridge",0,NA,4.896
"2341","copy","bedroom",9,2,29,0.817,19,0.475,0,1,0,0.529,"",NA,NA,NA
"2341","date","laugh",10,2,22,1.493,10,0.25,0,1,0,0.647,"",NA,NA,NA
"2341","need","faucet",11,2,25,1.551,13,0.325,1,1,1,0.58,"help",0,NA,4.169
"2341","calf","annoy",12,2,19,0.967,4,0.1,0,0,1,0.576,"",NA,NA,NA
"2341","bleach","ruin",13,2,32,1.327,25,0.625,1,1,1,0.601,"walk",0,NA,2.827
"2341","nerve","bumper",14,2,45,1.269,39,0.975,1,0,0,0.554,"skip",0,NA,3.313
"2341","port","cinema",15,2,16,1.346,2,0.05,0,0,1,0.477,"",NA,NA,NA
"2341","process","joker",16,2,36,1.845,36,0.9,1,0,0,0.423,"skip",0,NA,2.217
"2341","shrink","mafia",17,2,28,1.039,18,0.45,0,1,0,0.463,"",NA,NA,NA
"2341","want","ascent",18,2,27,1.033,17,0.425,0,1,0,0.493,"",NA,NA,NA
"2341","anger","decay",19,2,18,2.878,3,0.075,0,0,1,0.817,"",NA,NA,NA
"2341","biology","temper",20,2,41,1.171,38,0.95,1,0,0,0.545,"library",0,NA,9.704
"2341","pea","bathtub",21,2,22,1.125,8,0.2,0,0,1,0.553,"",NA,NA,NA
"2341","mill","feast",22,2,31,1.065,24,0.6,0,1,0,0.526,"",NA,NA,NA
"2341","caring","skirt",23,2,35,1.719,32,0.8,1,1,1,0.465,"fridge",0,NA,2.867
"2341","bacon","feud",24,2,35,1.623,34,0.85,1,0,0,0.652,"castle",0,NA,4.751
"2341","forest","knob",25,2,21,1.225,6,0.15,0,0,1,0.597,"",NA,NA,NA
"2341","remind","foam",26,2,30,2.093,20,0.5,1,1,1,0.687,"skip",0,NA,2.744
"2341","collect","loyalty",27,2,37,1.065,37,0.925,1,0,0,0.777,"coward",0,NA,6.729
"2341","replace","roach",28,2,7,3.539,1,0.025,0,0,1,6.741,"",NA,NA,NA
"2341","prison","loaf",29,2,30,1.239,22,0.55,0,1,0,0.556,"",NA,NA,NA
"2341","bullet","walkway",30,2,34,1.195,30,0.75,1,0,0,0.599,"skip",0,NA,2.492
"2341","link","crisis",31,2,35,1.075,31,0.775,1,1,1,3.775,"to the past",0,NA,3.451
"2341","fee","chowder",32,2,32,1.151,27,0.675,1,1,1,0.611,"skip",0,NA,2.019
"2341","banner","glide",33,2,22,1.175,9,0.225,0,0,1,0.679,"",NA,NA,NA
"2341","plant","worm",34,2,21,0.965,7,0.175,0,1,0,0.677,"",NA,NA,NA
"2341","visit","glove",35,2,32,1.151,28,0.7,1,0,0,0.511,"BRAZIL",0,NA,8.116
"2341","chicken","beet",36,2,24,1.661,12,0.3,0,0,1,0.557,"",NA,NA,NA
"2341","glue","force",37,2,32,1.418,26,0.65,1,1,1,0.559,"sniff",0,NA,3.308
"2341","climax","saucer",38,2,23,1.441,11,0.275,0,0,1,0.561,"",NA,NA,NA
"2341","grip","beach",39,2,33,1.465,29,0.725,1,0,0,0.489,"death",0,NA,2.344
"2341","fan","feature",40,2,25,1.524,14,0.35,0,1,0,0.497,"",NA,NA,NA
"2341","fan","feature",1,3,25,1.524,14,0.35,0,1,0,0.497,"",NA,NA,NA
"2341","process","joker",2,3,36,1.845,36,0.9,1,0,0,0.423,"oven",0,NA,6.837
"2341","want","ascent",3,3,27,1.033,17,0.425,0,1,0,0.493,"",NA,NA,NA
"2341","banner","glide",4,3,22,1.175,9,0.225,0,0,1,0.679,"",NA,NA,NA
"2341","pork","emperor",5,3,26,0.927,15,0.375,0,1,0,0.535,"",NA,NA,NA
"2341","risk","zero",6,3,30,1.409,21,0.525,1,1,1,0.781,"averse",0,NA,2.283
"2341","mill","feast",7,3,31,1.065,24,0.6,0,1,0,0.526,"",NA,NA,NA
"2341","replace","roach",8,3,7,3.539,1,0.025,0,0,1,6.741,"",NA,NA,NA
"2341","need","faucet",9,3,25,1.551,13,0.325,1,1,1,0.58,"spooky",0,NA,3.458
"2341","bacon","feud",10,3,35,1.623,34,0.85,1,0,0,0.652,"ator",0,NA,3.973
"2341","collect","loyalty",11,3,37,1.065,37,0.925,1,0,0,0.777,"stamps",0,NA,3.388
"2341","climax","saucer",12,3,23,1.441,11,0.275,0,0,1,0.561,"",NA,NA,NA
"2341","glue","force",13,3,32,1.418,26,0.65,1,1,1,0.559,"road",0,NA,4.774
"2341","pea","bathtub",14,3,22,1.125,8,0.2,0,0,1,0.553,"",NA,NA,NA
"2341","grip","beach",15,3,33,1.465,29,0.725,1,0,0,0.489,"glove",0,NA,4.22
"2341","calf","annoy",16,3,19,0.967,4,0.1,0,0,1,0.576,"",NA,NA,NA
"2341","anger","decay",17,3,18,2.878,3,0.075,0,0,1,0.817,"",NA,NA,NA
"2341","plant","worm",18,3,21,0.965,7,0.175,0,1,0,0.677,"",NA,NA,NA
"2341","bullet","walkway",19,3,34,1.195,30,0.75,1,0,0,0.599,"toilet",0,NA,4.067
"2341","biology","temper",20,3,41,1.171,38,0.95,1,0,0,0.545,"rod",0,NA,5.387
"2341","date","laugh",21,3,22,1.493,10,0.25,0,1,0,0.647,"",NA,NA,NA
"2341","visit","glove",22,3,32,1.151,28,0.7,1,0,0,0.511,"skip",0,NA,4.166
"2341","port","cinema",23,3,16,1.346,2,0.05,0,0,1,0.477,"",NA,NA,NA
"2341","nerve","bumper",24,3,45,1.269,39,0.975,1,0,0,0.554,"basket",0,NA,6.477
"2341","link","crisis",25,3,35,1.075,31,0.775,1,1,1,3.775,"chain",0,NA,3.753
"2341","caring","skirt",26,3,35,1.719,32,0.8,1,1,1,0.465,"pairing",0,NA,7.636
"2341","knock","otter",27,3,57,1.515,40,1,1,1,1,0.533,"lock",0,NA,3.872
"2341","chicken","beet",28,3,24,1.661,12,0.3,0,0,1,0.557,"",NA,NA,NA
"2341","fee","chowder",29,3,32,1.151,27,0.675,1,1,1,0.611,"told",0,NA,3.827
"2341","remind","foam",30,3,30,2.093,20,0.5,1,1,1,0.687,"time",0,NA,3.234
"2341","bleach","ruin",31,3,32,1.327,25,0.625,1,1,1,0.601,"skip",0,NA,1.952
"2341","find","clown",32,3,35,1.963,33,0.825,1,0,0,0.961,"skip",0,NA,1.669
"2341","rock","milk",33,3,30,1.171,23,0.575,0,1,0,0.575,"",NA,NA,NA
"2341","bias","sirloin",34,3,19,1.229,5,0.125,0,0,1,0.805,"",NA,NA,NA
"2341","smother","surgery",35,3,36,1.917,35,0.875,1,0,0,1.039,"cover",0,NA,5.949
"2341","copy","bedroom",36,3,29,0.817,19,0.475,0,1,0,0.529,"",NA,NA,NA
"2341","forest","knob",37,3,21,1.225,6,0.15,0,0,1,0.597,"",NA,NA,NA
"2341","capital","figure",38,3,27,2.971,16,0.4,1,1,1,0.515,"burger",0,NA,5.84
"2341","prison","loaf",39,3,30,1.239,22,0.55,0,1,0,0.556,"",NA,NA,NA
"2341","shrink","mafia",40,3,28,1.039,18,0.45,0,1,0,0.463,"",NA,NA,NA
"2495","glue","force",1,1,54,5.03,27,0.675,0,0,1,0.834,"",NA,NA,NA
"2495","nerve","bumper",2,1,11,5.773,6,0.15,0,1,0,1.027,"",NA,NA,NA
"2495","chicken","beet",3,1,95,4.184,38,0.95,1,1,1,1.134,"beet",1,NA,8.336
"2495","process","joker",4,1,4,9.86,2,0.05,0,1,0,1.381,"",NA,NA,NA
"2495","collect","loyalty",5,1,75,7.981,33,0.825,1,1,1,0.801,"loyalty",1,NA,11.793
"2495","shrink","mafia",6,1,53,4.579,25,0.625,0,0,1,1.018,"",NA,NA,NA
"2495","capital","figure",7,1,39,6.159,21,0.525,1,0,0,0.979,"city",0,NA,11.711
"2495","date","laugh",8,1,20,4.799,11,0.275,1,0,0,0.779,"dance",0,NA,11.839
"2495","pea","bathtub",9,1,63,3.232,31,0.775,1,1,1,0.957,"mattress",0,NA,4.785
"2495","pork","emperor",10,1,37,8.579,18,0.45,1,0,0,1.158,"loin",0,NA,5.541
"2495","copy","bedroom",11,1,12,8.799,8,0.2,0,1,0,0.957,"",NA,NA,NA
"2495","biology","temper",12,1,35,9.279,16,0.4,0,0,1,3.355,"",NA,NA,NA
"2495","risk","zero",13,1,79,6.222,34,0.85,1,1,1,0.787,"zero",1,NA,6.433
"2495","visit","glove",14,1,38,9.585,20,0.5,1,0,0,2.151,"clover",0,NA,8.989
"2495","anger","decay",15,1,8,7.539,4,0.1,0,1,0,1.141,"",NA,NA,NA
"2495","link","crisis",16,1,26,8.353,14,0.35,1,0,0,0.848,"book",0,NA,11.074
"2495","plant","worm",17,1,99,6.059,40,1,1,1,1,1.573,"worm",1,NA,3.69
"2495","want","ascent",18,1,7,9.62,3,0.075,0,1,0,1.217,"",NA,NA,NA
"2495","port","cinema",19,1,59,4.067,29,0.725,0,0,1,0.842,"",NA,NA,NA
"2495","rock","milk",20,1,44,4.199,24,0.6,0,0,1,0.879,"",NA,NA,NA
"2495","bias","sirloin",21,1,2,11.484,1,0.025,0,1,0,11.986,"",NA,NA,NA
"2495","forest","knob",22,1,25,8.839,13,0.325,1,0,0,0.767,"wall",0,NA,14.961
"2495","find","clown",23,1,79,6.02,35,0.875,1,1,1,0.825,"clown",1,NA,6.4
"2495","smother","surgery",24,1,83,4.407,36,0.9,1,1,1,10.991,"surgery",1,NA,7.06
"2495","knock","otter",25,1,13,5.712,9,0.225,0,1,0,0.84,"",NA,NA,NA
"2495","fan","feature",26,1,41,7.489,23,0.575,1,0,0,1.174,"feature",1,NA,13.615
"2495","prison","loaf",27,1,90,5.519,37,0.925,1,1,1,10.938,"loaf",1,NA,3.772
"2495","need","faucet",28,1,15,7.285,10,0.25,0,1,0,1.057,"",NA,NA,NA
"2495","calf","annoy",29,1,61,7.082,30,0.75,0,0,1,0.887,"",NA,NA,NA
"2495","replace","roach",30,1,10,9.558,5,0.125,0,1,0,1.474,"",NA,NA,NA
"2495","banner","glide",31,1,41,5.595,22,0.55,1,0,0,0.762,"label",0,NA,13.485
"2495","caring","skirt",32,1,11,6.526,7,0.175,0,1,0,0.879,"",NA,NA,NA
"2495","bullet","walkway",33,1,72,4.452,32,0.8,1,1,1,1.219,"walkway",1,NA,4.654
"2495","bacon","feud",34,1,32,9.35,15,0.375,1,0,0,1.041,"butter",0,NA,5.108
"2495","remind","foam",35,1,24,7.505,12,0.3,1,0,0,0.849,"super",0,NA,20.336
"2495","mill","feast",36,1,38,5.633,19,0.475,0,0,1,0.849,"",NA,NA,NA
"2495","fee","chowder",37,1,54,6.968,26,0.65,0,0,1,0.91,"",NA,NA,NA
"2495","bleach","ruin",38,1,99,3.465,39,0.975,1,1,1,0.831,"ruin",1,NA,5.423
"2495","climax","saucer",39,1,36,3.619,17,0.425,0,0,1,0.809,"",NA,NA,NA
"2495","grip","beach",40,1,55,4.353,28,0.7,0,0,1,0.817,"",NA,NA,NA
"2495","plant","worm",1,2,99,6.059,40,1,1,1,1,1.573,"worm",1,NA,6.15
"2495","process","joker",2,2,4,9.86,2,0.05,0,1,0,1.381,"",NA,NA,NA
"2495","forest","knob",3,2,25,8.839,13,0.325,1,0,0,0.767,"wall",0,NA,10.656
"2495","need","faucet",4,2,15,7.285,10,0.25,0,1,0,1.057,"",NA,NA,NA
"2495","risk","zero",5,2,79,6.222,34,0.85,1,1,1,0.787,"zero",1,NA,3.414
"2495","banner","glide",6,2,41,5.595,22,0.55,1,0,0,0.762,"label",0,NA,5.194
"2495","date","laugh",7,2,20,4.799,11,0.275,1,0,0,0.779,"movie",0,NA,5.656
"2495","bleach","ruin",8,2,99,3.465,39,0.975,1,1,1,0.831,"ruin",1,NA,3.91
"2495","smother","surgery",9,2,83,4.407,36,0.9,1,1,1,10.991,"surgery",1,NA,4.344
"2495","climax","saucer",10,2,36,3.619,17,0.425,0,0,1,0.809,"",NA,NA,NA
"2495","bacon","feud",11,2,32,9.35,15,0.375,1,0,0,1.041,"sandwich",0,NA,5.479
"2495","shrink","mafia",12,2,53,4.579,25,0.625,0,0,1,1.018,"",NA,NA,NA
"2495","copy","bedroom",13,2,12,8.799,8,0.2,0,1,0,0.957,"",NA,NA,NA
"2495","mill","feast",14,2,38,5.633,19,0.475,0,0,1,0.849,"",NA,NA,NA
"2495","anger","decay",15,2,8,7.539,4,0.1,0,1,0,1.141,"",NA,NA,NA
"2495","pork","emperor",16,2,37,8.579,18,0.45,1,0,0,1.158,"loin",0,NA,3.968
"2495","calf","annoy",17,2,61,7.082,30,0.75,0,0,1,0.887,"",NA,NA,NA
"2495","fee","chowder",18,2,54,6.968,26,0.65,0,0,1,0.91,"",NA,NA,NA
"2495","bias","sirloin",19,2,2,11.484,1,0.025,0,1,0,11.986,"",NA,NA,NA
"2495","port","cinema",20,2,59,4.067,29,0.725,0,0,1,0.842,"",NA,NA,NA
"2495","chicken","beet",21,2,95,4.184,38,0.95,1,1,1,1.134,"beet",1,NA,4.372
"2495","remind","foam",22,2,24,7.505,12,0.3,1,0,0,0.849,"replace",0,NA,8.874
"2495","nerve","bumper",23,2,11,5.773,6,0.15,0,1,0,1.027,"",NA,NA,NA
"2495","link","crisis",24,2,26,8.353,14,0.35,1,0,0,0.848,"chain",0,NA,7.723
"2495","want","ascent",25,2,7,9.62,3,0.075,0,1,0,1.217,"",NA,NA,NA
"2495","bullet","walkway",26,2,72,4.452,32,0.8,1,1,1,1.219,"walkway",1,NA,4.341
"2495","capital","figure",27,2,39,6.159,21,0.525,1,0,0,0.979,"city",0,NA,4.005
"2495","collect","loyalty",28,2,75,7.981,33,0.825,1,1,1,0.801,"loyalty",1,NA,5.462
"2495","replace","roach",29,2,10,9.558,5,0.125,0,1,0,1.474,"",NA,NA,NA
"2495","grip","beach",30,2,55,4.353,28,0.7,0,0,1,0.817,"",NA,NA,NA
"2495","knock","otter",31,2,13,5.712,9,0.225,0,1,0,0.84,"",NA,NA,NA
"2495","prison","loaf",32,2,90,5.519,37,0.925,1,1,1,10.938,"loaf",1,NA,4.293
"2495","visit","glove",33,2,38,9.585,20,0.5,1,0,0,2.151,"clover",0,NA,6.389
"2495","rock","milk",34,2,44,4.199,24,0.6,0,0,1,0.879,"",NA,NA,NA
"2495","fan","feature",35,2,41,7.489,23,0.575,1,0,0,1.174,"feature",1,NA,5.118
"2495","find","clown",36,2,79,6.02,35,0.875,1,1,1,0.825,"clown",1,NA,6.595
"2495","glue","force",37,2,54,5.03,27,0.675,0,0,1,0.834,"",NA,NA,NA
"2495","biology","temper",38,2,35,9.279,16,0.4,0,0,1,3.355,"",NA,NA,NA
"2495","caring","skirt",39,2,11,6.526,7,0.175,0,1,0,0.879,"",NA,NA,NA
"2495","pea","bathtub",40,2,63,3.232,31,0.775,1,1,1,0.957,"mattress",0,NA,8.119
"2495","shrink","mafia",1,3,53,4.579,25,0.625,0,0,1,1.018,"",NA,NA,NA
"2495","glue","force",2,3,54,5.03,27,0.675,0,0,1,0.834,"",NA,NA,NA
"2495","banner","glide",3,3,41,5.595,22,0.55,1,0,0,0.762,"label",0,NA,5.657
"2495","fee","chowder",4,3,54,6.968,26,0.65,0,0,1,0.91,"",NA,NA,NA
"2495","calf","annoy",5,3,61,7.082,30,0.75,0,0,1,0.887,"",NA,NA,NA
"2495","capital","figure",6,3,39,6.159,21,0.525,1,0,0,0.979,"city",0,NA,3.956
"2495","bullet","walkway",7,3,72,4.452,32,0.8,1,1,1,1.219,"walkway",1,NA,5.029
"2495","copy","bedroom",8,3,12,8.799,8,0.2,0,1,0,0.957,"",NA,NA,NA
"2495","want","ascent",9,3,7,9.62,3,0.075,0,1,0,1.217,"",NA,NA,NA
"2495","nerve","bumper",10,3,11,5.773,6,0.15,0,1,0,1.027,"",NA,NA,NA
"2495","prison","loaf",11,3,90,5.519,37,0.925,1,1,1,10.938,"loaf",1,NA,3.656
"2495","rock","milk",12,3,44,4.199,24,0.6,0,0,1,0.879,"",NA,NA,NA
"2495","pork","emperor",13,3,37,8.579,18,0.45,1,0,0,1.158,"loin",0,NA,3.936
"2495","chicken","beet",14,3,95,4.184,38,0.95,1,1,1,1.134,"beet",1,NA,3.624
"2495","visit","glove",15,3,38,9.585,20,0.5,1,0,0,2.151,"clover",0,NA,6.691
"2495","plant","worm",16,3,99,6.059,40,1,1,1,1,1.573,"worm",1,NA,3.71
"2495","pea","bathtub",17,3,63,3.232,31,0.775,1,1,1,0.957,"mattress",0,NA,8.186
"2495","forest","knob",18,3,25,8.839,13,0.325,1,0,0,0.767,"fire",0,NA,4.242
"2495","smother","surgery",19,3,83,4.407,36,0.9,1,1,1,10.991,"surgery",1,NA,4.84
"2495","mill","feast",20,3,38,5.633,19,0.475,0,0,1,0.849,"",NA,NA,NA
"2495","caring","skirt",21,3,11,6.526,7,0.175,0,1,0,0.879,"",NA,NA,NA
"2495","grip","beach",22,3,55,4.353,28,0.7,0,0,1,0.817,"",NA,NA,NA
"2495","date","laugh",23,3,20,4.799,11,0.275,1,0,0,0.779,"dance",0,NA,8.988
"2495","replace","roach",24,3,10,9.558,5,0.125,0,1,0,1.474,"",NA,NA,NA
"2495","find","clown",25,3,79,6.02,35,0.875,1,1,1,0.825,"clown",1,NA,5.323
"2495","bleach","ruin",26,3,99,3.465,39,0.975,1,1,1,0.831,"ruin",1,NA,4.112
"2495","remind","foam",27,3,24,7.505,12,0.3,1,0,0,0.849,"remember",0,NA,14.225
"2495","collect","loyalty",28,3,75,7.981,33,0.825,1,1,1,0.801,"loyalty",1,NA,5.125
"2495","need","faucet",29,3,15,7.285,10,0.25,0,1,0,1.057,"",NA,NA,NA
"2495","port","cinema",30,3,59,4.067,29,0.725,0,0,1,0.842,"",NA,NA,NA
"2495","bias","sirloin",31,3,2,11.484,1,0.025,0,1,0,11.986,"",NA,NA,NA
"2495","fan","feature",32,3,41,7.489,23,0.575,1,0,0,1.174,"feature",1,NA,4.515
"2495","biology","temper",33,3,35,9.279,16,0.4,0,0,1,3.355,"",NA,NA,NA
"2495","risk","zero",34,3,79,6.222,34,0.85,1,1,1,0.787,"zero",1,NA,4.713
"2495","link","crisis",35,3,26,8.353,14,0.35,1,0,0,0.848,"chain",0,NA,4.128
"2495","knock","otter",36,3,13,5.712,9,0.225,0,1,0,0.84,"",NA,NA,NA
"2495","process","joker",37,3,4,9.86,2,0.05,0,1,0,1.381,"",NA,NA,NA
"2495","anger","decay",38,3,8,7.539,4,0.1,0,1,0,1.141,"",NA,NA,NA
"2495","bacon","feud",39,3,32,9.35,15,0.375,1,0,0,1.041,"sandwich",0,NA,5.236
"2495","climax","saucer",40,3,36,3.619,17,0.425,0,0,1,0.809,"",NA,NA,NA
"2503","find","clown",1,1,34,2.214,9,0.225,0,0,1,0.673,"",NA,NA,NA
"2503","mill","feast",2,1,57,2.209,23,0.575,0,1,0,2.809,"",NA,NA,NA
"2503","visit","glove",3,1,63,2.345,28,0.7,1,0,0,0.751,"time",0,NA,5.643
"2503","chicken","beet",4,1,57,1.903,24,0.6,1,0,0,0.613,"rub",0,NA,2.518
"2503","nerve","bumper",5,1,69,1.487,36,0.9,1,1,1,0.6,"arm",0,NA,3.143
"2503","calf","annoy",6,1,35,1.902,10,0.25,0,0,1,0.704,"",NA,NA,NA
"2503","port","cinema",7,1,38,1.681,11,0.275,0,0,1,1.547,"",NA,NA,NA
"2503","capital","figure",8,1,43,3.129,15,0.375,0,1,0,0.715,"",NA,NA,NA
"2503","date","laugh",9,1,64,2.125,29,0.725,1,1,1,1.121,"week",0,NA,3.001
"2503","pork","emperor",10,1,30,2.923,5,0.125,0,0,1,3.603,"",NA,NA,NA
"2503","process","joker",11,1,47,1.374,18,0.45,1,1,1,0.869,"well",0,NA,2.325
"2503","replace","roach",12,1,76,2.111,40,1,1,0,0,1.143,"good",0,NA,13.671
"2503","want","ascent",13,1,1,1.693,1,0.025,0,0,1,1.637,"",NA,NA,NA
"2503","bias","sirloin",14,1,51,2.887,19,0.475,0,1,0,0.709,"",NA,NA,NA
"2503","remind","foam",15,1,32,5.913,8,0.2,0,0,1,3.96,"",NA,NA,NA
"2503","bullet","walkway",16,1,41,2.267,13,0.325,0,0,1,0.781,"",NA,NA,NA
"2503","rock","milk",17,1,67,1.835,34,0.85,1,0,0,3.235,"hard",0,NA,2.858
"2503","link","crisis",18,1,71,6.855,37,0.925,1,0,0,1.153,"connect",0,NA,5.724
"2503","need","faucet",19,1,74,2.393,39,0.975,1,1,1,1.31,"enough",0,NA,4.903
"2503","caring","skirt",20,1,68,2.222,35,0.875,1,0,0,0.831,"good",0,NA,3.359
"2503","copy","bedroom",21,1,26,1.762,3,0.075,0,1,0,0.8,"",NA,NA,NA
"2503","climax","saucer",22,1,64,2.084,30,0.75,1,1,1,0.717,"hard",0,NA,3.932
"2503","collect","loyalty",23,1,60,1.677,25,0.625,1,0,0,0.747,"complete",0,NA,3.903
"2503","bacon","feud",24,1,43,2.888,14,0.35,1,1,1,1.24,"emperor",0,NA,3.904
"2503","forest","knob",25,1,39,3.566,12,0.3,0,0,1,1.475,"",NA,NA,NA
"2503","banner","glide",26,1,44,2.009,16,0.4,0,1,0,1.073,"",NA,NA,NA
"2503","fee","chowder",27,1,66,2.053,31,0.775,1,1,1,1.471,"cost",0,NA,2.535
"2503","bleach","ruin",28,1,67,2.096,33,0.825,1,1,1,0.784,"clean",0,NA,5.159
"2503","fan","feature",29,1,73,3.681,38,0.95,1,0,0,2.467,"cool",0,NA,4.367
"2503","pea","bathtub",30,1,26,1.898,4,0.1,0,1,0,0.744,"",NA,NA,NA
"2503","biology","temper",31,1,66,2.029,32,0.8,1,0,0,0.702,"cool",0,NA,7.093
"2503","prison","loaf",32,1,55,1.905,22,0.55,0,1,0,2.059,"",NA,NA,NA
"2503","smother","surgery",33,1,17,3.008,2,0.05,0,0,1,1.588,"",NA,NA,NA
"2503","plant","worm",34,1,62,2.091,27,0.675,1,0,0,1.241,"green",0,NA,3.922
"2503","shrink","mafia",35,1,30,2.186,6,0.15,0,0,1,1.775,"",NA,NA,NA
"2503","glue","force",36,1,61,2.035,26,0.65,1,1,1,0.951,"stick",0,NA,2.34
"2503","grip","beach",37,1,45,1.734,17,0.425,1,1,1,0.756,"strong",0,NA,4.479
"2503","knock","otter",38,1,55,3.855,21,0.525,0,1,0,1.605,"",NA,NA,NA
"2503","anger","decay",39,1,51,2.267,20,0.5,0,1,0,9.181,"",NA,NA,NA
"2503","risk","zero",40,1,31,1.681,7,0.175,0,1,0,0.916,"",NA,NA,NA
"2503","pork","emperor",1,2,30,2.923,5,0.125,0,0,1,3.603,"",NA,NA,NA
"2503","process","joker",2,2,47,1.374,18,0.45,1,1,1,0.869,"well",0,NA,3.553
"2503","calf","annoy",3,2,35,1.902,10,0.25,0,0,1,0.704,"",NA,NA,NA
"2503","risk","zero",4,2,31,1.681,7,0.175,0,1,0,0.916,"",NA,NA,NA
"2503","prison","loaf",5,2,55,1.905,22,0.55,0,1,0,2.059,"",NA,NA,NA
"2503","rock","milk",6,2,67,1.835,34,0.85,1,0,0,3.235,"hard",0,NA,3.703
"2503","chicken","beet",7,2,57,1.903,24,0.6,1,0,0,0.613,"rub",0,NA,2.063
"2503","banner","glide",8,2,44,2.009,16,0.4,0,1,0,1.073,"",NA,NA,NA
"2503","link","crisis",9,2,71,6.855,37,0.925,1,0,0,1.153,"connect",0,NA,4.132
"2503","caring","skirt",10,2,68,2.222,35,0.875,1,0,0,0.831,"strong",0,NA,3.127
"2503","replace","roach",11,2,76,2.111,40,1,1,0,0,1.143,"cool",0,NA,2.191
"2503","copy","bedroom",12,2,26,1.762,3,0.075,0,1,0,0.8,"",NA,NA,NA
"2503","bleach","ruin",13,2,67,2.096,33,0.825,1,1,1,0.784,"clean",0,NA,2.197
"2503","fee","chowder",14,2,66,2.053,31,0.775,1,1,1,1.471,"collect",0,NA,3.006
"2503","capital","figure",15,2,43,3.129,15,0.375,0,1,0,0.715,"",NA,NA,NA
"2503","bias","sirloin",16,2,51,2.887,19,0.475,0,1,0,0.709,"",NA,NA,NA
"2503","glue","force",17,2,61,2.035,26,0.65,1,1,1,0.951,"stick",0,NA,5.674
"2503","climax","saucer",18,2,64,2.084,30,0.75,1,1,1,0.717,"collect",0,NA,13.607
"2503","plant","worm",19,2,62,2.091,27,0.675,1,0,0,1.241,"green",0,NA,2.535
"2503","need","faucet",20,2,74,2.393,39,0.975,1,1,1,1.31,"strong",0,NA,2.759
"2503","visit","glove",21,2,63,2.345,28,0.7,1,0,0,0.751,"home",0,NA,4.543
"2503","bullet","walkway",22,2,41,2.267,13,0.325,0,0,1,0.781,"",NA,NA,NA
"2503","bacon","feud",23,2,43,2.888,14,0.35,1,1,1,1.24,"emperor",0,NA,4.71
"2503","forest","knob",24,2,39,3.566,12,0.3,0,0,1,1.475,"",NA,NA,NA
"2503","pea","bathtub",25,2,26,1.898,4,0.1,0,1,0,0.744,"",NA,NA,NA
"2503","smother","surgery",26,2,17,3.008,2,0.05,0,0,1,1.588,"",NA,NA,NA
"2503","knock","otter",27,2,55,3.855,21,0.525,0,1,0,1.605,"",NA,NA,NA
"2503","mill","feast",28,2,57,2.209,23,0.575,0,1,0,2.809,"",NA,NA,NA
"2503","grip","beach",29,2,45,1.734,17,0.425,1,1,1,0.756,"hand",0,NA,3.156
"2503","remind","foam",30,2,32,5.913,8,0.2,0,0,1,3.96,"",NA,NA,NA
"2503","port","cinema",31,2,38,1.681,11,0.275,0,0,1,1.547,"",NA,NA,NA
"2503","collect","loyalty",32,2,60,1.677,25,0.625,1,0,0,0.747,"fee",0,NA,2.237
"2503","fan","feature",33,2,73,3.681,38,0.95,1,0,0,2.467,"cool",0,NA,2.461
"2503","find","clown",34,2,34,2.214,9,0.225,0,0,1,0.673,"",NA,NA,NA
"2503","biology","temper",35,2,66,2.029,32,0.8,1,0,0,0.702,"animal",0,NA,2.877
"2503","want","ascent",36,2,1,1.693,1,0.025,0,0,1,1.637,"",NA,NA,NA
"2503","shrink","mafia",37,2,30,2.186,6,0.15,0,0,1,1.775,"",NA,NA,NA
"2503","date","laugh",38,2,64,2.125,29,0.725,1,1,1,1.121,"nice",0,NA,3.243
"2503","anger","decay",39,2,51,2.267,20,0.5,0,1,0,9.181,"",NA,NA,NA
"2503","nerve","bumper",40,2,69,1.487,36,0.9,1,1,1,0.6,"hand",0,NA,10.709
"2503","mill","feast",1,3,57,2.209,23,0.575,0,1,0,2.809,"",NA,NA,NA
"2503","visit","glove",2,3,63,2.345,28,0.7,1,0,0,0.751,"nice",0,NA,14.138
"2503","bullet","walkway",3,3,41,2.267,13,0.325,0,0,1,0.781,"",NA,NA,NA
"2503","glue","force",4,3,61,2.035,26,0.65,1,1,1,0.951,"stick",0,NA,2.834
"2503","pork","emperor",5,3,30,2.923,5,0.125,0,0,1,3.603,"",NA,NA,NA
"2503","plant","worm",6,3,62,2.091,27,0.675,1,0,0,1.241,"green",0,NA,3.219
"2503","capital","figure",7,3,43,3.129,15,0.375,0,1,0,0.715,"",NA,NA,NA
"2503","rock","milk",8,3,67,1.835,34,0.85,1,0,0,3.235,"hard",0,NA,18.358
"2503","forest","knob",9,3,39,3.566,12,0.3,0,0,1,1.475,"",NA,NA,NA
"2503","find","clown",10,3,34,2.214,9,0.225,0,0,1,0.673,"",NA,NA,NA
"2503","fee","chowder",11,3,66,2.053,31,0.775,1,1,1,1.471,"collect",0,NA,2.252
"2503","prison","loaf",12,3,55,1.905,22,0.55,0,1,0,2.059,"",NA,NA,NA
"2503","want","ascent",13,3,1,1.693,1,0.025,0,0,1,1.637,"",NA,NA,NA
"2503","pea","bathtub",14,3,26,1.898,4,0.1,0,1,0,0.744,"",NA,NA,NA
"2503","bleach","ruin",15,3,67,2.096,33,0.825,1,1,1,0.784,"clean",0,NA,2.554
"2503","climax","saucer",16,3,64,2.084,30,0.75,1,1,1,0.717,"strong",0,NA,3.206
"2503","smother","surgery",17,3,17,3.008,2,0.05,0,0,1,1.588,"",NA,NA,NA
"2503","chicken","beet",18,3,57,1.903,24,0.6,1,0,0,0.613,"rub",0,NA,2.493
"2503","copy","bedroom",19,3,26,1.762,3,0.075,0,1,0,0.8,"",NA,NA,NA
"2503","biology","temper",20,3,66,2.029,32,0.8,1,0,0,0.702,"science",0,NA,4.139
"2503","collect","loyalty",21,3,60,1.677,25,0.625,1,0,0,0.747,"fee",0,NA,2.551
"2503","risk","zero",22,3,31,1.681,7,0.175,0,1,0,0.916,"",NA,NA,NA
"2503","anger","decay",23,3,51,2.267,20,0.5,0,1,0,9.181,"",NA,NA,NA
"2503","link","crisis",24,3,71,6.855,37,0.925,1,0,0,1.153,"connect",0,NA,3.042
"2503","port","cinema",25,3,38,1.681,11,0.275,0,0,1,1.547,"",NA,NA,NA
"2503","caring","skirt",26,3,68,2.222,35,0.875,1,0,0,0.831,"clean",0,NA,6.197
"2503","grip","beach",27,3,45,1.734,17,0.425,1,1,1,0.756,"strong",0,NA,3.487
"2503","date","laugh",28,3,64,2.125,29,0.725,1,1,1,1.121,"week",0,NA,2.151
"2503","replace","roach",29,3,76,2.111,40,1,1,0,0,1.143,"strong",0,NA,3.512
"2503","remind","foam",30,3,32,5.913,8,0.2,0,0,1,3.96,"",NA,NA,NA
"2503","need","faucet",31,3,74,2.393,39,0.975,1,1,1,1.31,"want",0,NA,2.396
"2503","bias","sirloin",32,3,51,2.887,19,0.475,0,1,0,0.709,"",NA,NA,NA
"2503","calf","annoy",33,3,35,1.902,10,0.25,0,0,1,0.704,"",NA,NA,NA
"2503","banner","glide",34,3,44,2.009,16,0.4,0,1,0,1.073,"",NA,NA,NA
"2503","process","joker",35,3,47,1.374,18,0.45,1,1,1,0.869,"go",0,NA,4.463
"2503","knock","otter",36,3,55,3.855,21,0.525,0,1,0,1.605,"",NA,NA,NA
"2503","shrink","mafia",37,3,30,2.186,6,0.15,0,0,1,1.775,"",NA,NA,NA
"2503","bacon","feud",38,3,43,2.888,14,0.35,1,1,1,1.24,"emperor",0,NA,4.769
"2503","nerve","bumper",39,3,69,1.487,36,0.9,1,1,1,0.6,"hand",0,NA,3.471
"2503","fan","feature",40,3,73,3.681,38,0.95,1,0,0,2.467,"cool",0,NA,1.839
"2652","chicken","beet",1,1,75,4.229,32,0.8,0,0,1,0.606,"",NA,NA,NA
"2652","process","joker",2,1,15,2.932,5,0.125,1,0,0,0.603,"SKIP",0,NA,12.225
"2652","capital","figure",3,1,20,8.834,19,0.475,1,1,1,0.711,"SKIP",0,NA,9.911
"2652","plant","worm",4,1,15,5.992,9,0.225,1,0,0,0.488,"Tree",0,NA,7.423
"2652","bias","sirloin",5,1,10,4.723,1,0.025,1,0,0,1.153,"Greed",0,NA,6.834
"2652","pea","bathtub",6,1,20,11.241,13,0.325,1,0,0,0.944,"bathtub",1,NA,6.105
"2652","rock","milk",7,1,25,6.65,22,0.55,0,1,0,0.643,"",NA,NA,NA
"2652","copy","bedroom",8,1,22,4.371,21,0.525,0,1,0,0.906,"",NA,NA,NA
"2652","pork","emperor",9,1,85,5.491,39,0.975,0,0,1,1.563,"",NA,NA,NA
"2652","anger","decay",10,1,10,15.18,3,0.075,1,0,0,0.831,"chaos",0,NA,9.076
"2652","remind","foam",11,1,20,5.222,17,0.425,0,1,0,1.472,"",NA,NA,NA
"2652","date","laugh",12,1,75,4.898,31,0.775,0,0,1,0.552,"",NA,NA,NA
"2652","smother","surgery",13,1,80,4.77,38,0.95,0,0,1,0.818,"",NA,NA,NA
"2652","banner","glide",14,1,10,4.623,2,0.05,1,0,0,0.647,"grip",0,NA,9.032
"2652","find","clown",15,1,75,5.082,29,0.725,1,1,1,0.808,"clown",1,NA,3.8
"2652","biology","temper",16,1,31,4.746,23,0.575,0,1,0,0.662,"",NA,NA,NA
"2652","shrink","mafia",17,1,20,5.767,16,0.4,0,1,0,0.638,"",NA,NA,NA
"2652","caring","skirt",18,1,15,2.438,10,0.25,1,1,1,0.952,"duck",0,NA,9.163
"2652","fan","feature",19,1,50,5.511,26,0.65,0,1,0,0.614,"",NA,NA,NA
"2652","want","ascent",20,1,20,4.885,15,0.375,0,1,0,0.725,"",NA,NA,NA
"2652","prison","loaf",21,1,80,5.942,36,0.9,0,0,1,0.958,"",NA,NA,NA
"2652","knock","otter",22,1,21,3.104,20,0.5,0,1,0,0.63,"",NA,NA,NA
"2652","bacon","feud",23,1,75,4.159,30,0.75,1,1,1,0.607,"emperor ",0,NA,7.444
"2652","visit","glove",24,1,20,8.016,14,0.35,0,1,0,0.768,"",NA,NA,NA
"2652","forest","knob",25,1,67,4.372,28,0.7,1,1,1,0.728,"knob",1,NA,4.374
"2652","bleach","ruin",26,1,80,3.754,37,0.925,0,0,1,0.7,"",NA,NA,NA
"2652","bullet","walkway",27,1,85,5.134,40,1,0,0,1,0.674,"",NA,NA,NA
"2652","replace","roach",28,1,15,4.981,6,0.15,1,0,0,0.711,"faucet",0,NA,7.469
"2652","climax","saucer",29,1,10,9.521,4,0.1,1,1,1,0.751,"pan",0,NA,7.064
"2652","port","cinema",30,1,79,5.914,35,0.875,0,0,1,0.98,"",NA,NA,NA
"2652","mill","feast",31,1,75,3.653,33,0.825,0,0,1,0.865,"",NA,NA,NA
"2652","link","crisis",32,1,50,6.302,24,0.6,1,1,1,0.898,"drama",0,NA,13.701
"2652","collect","loyalty",33,1,15,2.695,8,0.2,1,0,0,0.589,"pan",0,NA,5.695
"2652","calf","annoy",34,1,15,6.14,7,0.175,1,0,0,0.924,"chaos",0,NA,9.484
"2652","glue","force",35,1,65,6.849,27,0.675,1,1,1,0.668,"force",1,NA,3.155
"2652","nerve","bumper",36,1,20,5.763,18,0.45,1,1,1,0.82,"chaos",0,NA,12.345
"2652","need","faucet",37,1,79,6.093,34,0.85,0,0,1,1.289,"",NA,NA,NA
"2652","grip","beach",38,1,20,8.825,12,0.3,1,1,1,10.479,"clown",0,NA,5.619
"2652","risk","zero",39,1,50,9.921,25,0.625,0,1,0,0.685,"",NA,NA,NA
"2652","fee","chowder",40,1,19,5.285,11,0.275,1,0,0,0.627,"capital",0,NA,8.546
"2652","want","ascent",1,2,20,4.885,15,0.375,0,1,0,0.725,"",NA,NA,NA
"2652","replace","roach",2,2,15,4.981,6,0.15,1,0,0,0.711,"faucet",0,NA,7.467
"2652","fee","chowder",3,2,19,5.285,11,0.275,1,0,0,0.627,"capital",0,NA,7.645
"2652","risk","zero",4,2,50,9.921,25,0.625,0,1,0,0.685,"",NA,NA,NA
"2652","prison","loaf",5,2,80,5.942,36,0.9,0,0,1,0.958,"",NA,NA,NA
"2652","need","faucet",6,2,79,6.093,34,0.85,0,0,1,1.289,"",NA,NA,NA
"2652","bullet","walkway",7,2,85,5.134,40,1,0,0,1,0.674,"",NA,NA,NA
"2652","biology","temper",8,2,31,4.746,23,0.575,0,1,0,0.662,"",NA,NA,NA
"2652","bias","sirloin",9,2,10,4.723,1,0.025,1,0,0,1.153,"calf",0,NA,6.854
"2652","visit","glove",10,2,20,8.016,14,0.35,0,1,0,0.768,"",NA,NA,NA
"2652","caring","skirt",11,2,15,2.438,10,0.25,1,1,1,0.952,"SKIP",0,NA,5.859
"2652","shrink","mafia",12,2,20,5.767,16,0.4,0,1,0,0.638,"",NA,NA,NA
"2652","plant","worm",13,2,15,5.992,9,0.225,1,0,0,0.488,"otter",0,NA,12.514
"2652","forest","knob",14,2,67,4.372,28,0.7,1,1,1,0.728,"knob",1,NA,5.143
"2652","grip","beach",15,2,20,8.825,12,0.3,1,1,1,10.479,"mafia",0,NA,12.143
"2652","pea","bathtub",16,2,20,11.241,13,0.325,1,0,0,0.944,"bathtub",1,NA,3.716
"2652","rock","milk",17,2,25,6.65,22,0.55,0,1,0,0.643,"",NA,NA,NA
"2652","mill","feast",18,2,75,3.653,33,0.825,0,0,1,0.865,"",NA,NA,NA
"2652","glue","force",19,2,65,6.849,27,0.675,1,1,1,0.668,"force",1,NA,5.227
