"subn","word1","word2","trial","list","jol","jolrt","jolrank","jolrankp","practice","honor","choice","choicert"
"1055","smother","surgery",1,1,-99,-99,NA,NA,0,0,-99,-99
"1055","process","joker",2,1,-99,-99,NA,NA,1,1,-99,-99
"1055","link","crisis",3,1,-99,-99,NA,NA,0,1,-99,-99
"1055","climax","saucer",4,1,-99,-99,NA,NA,0,0,-99,-99
"1055","bleach","ruin",5,1,-99,-99,NA,NA,1,1,-99,-99
"1055","knock","otter",6,1,-99,-99,NA,NA,0,0,-99,-99
"1055","banner","glide",7,1,-99,-99,NA,NA,0,0,-99,-99
"1055","shrink","mafia",8,1,-99,-99,NA,NA,1,1,-99,-99
"1055","risk","zero",9,1,-99,-99,NA,NA,0,1,-99,-99
"1055","replace","roach",10,1,-99,-99,NA,NA,1,1,-99,-99
"1055","want","ascent",11,1,-99,-99,NA,NA,0,1,-99,-99
"1055","capital","figure",12,1,-99,-99,NA,NA,1,0,-99,-99
"1055","mill","feast",13,1,-99,-99,NA,NA,1,0,-99,-99
"1055","calf","annoy",14,1,-99,-99,NA,NA,1,0,-99,-99
"1055","bacon","feud",15,1,-99,-99,NA,NA,0,0,-99,-99
"1055","fan","feature",16,1,-99,-99,NA,NA,0,1,-99,-99
"1055","remind","foam",17,1,-99,-99,NA,NA,1,1,-99,-99
"1055","forest","knob",18,1,-99,-99,NA,NA,1,1,-99,-99
"1055","port","cinema",19,1,-99,-99,NA,NA,1,0,-99,-99
"1055","pork","emperor",20,1,-99,-99,NA,NA,1,0,-99,-99
"1055","glue","force",21,1,-99,-99,NA,NA,0,0,-99,-99
"1055","plant","worm",22,1,-99,-99,NA,NA,1,0,-99,-99
"1055","prison","loaf",23,1,-99,-99,NA,NA,1,0,-99,-99
"1055","date","laugh",24,1,-99,-99,NA,NA,1,0,-99,-99
"1055","bias","sirloin",25,1,-99,-99,NA,NA,0,1,-99,-99
"1055","pea","bathtub",26,1,-99,-99,NA,NA,0,1,-99,-99
"1055","bullet","walkway",27,1,-99,-99,NA,NA,1,1,-99,-99
"1055","grip","beach",28,1,-99,-99,NA,NA,0,1,-99,-99
"1055","chicken","beet",29,1,-99,-99,NA,NA,1,1,-99,-99
"1055","collect","loyalty",30,1,-99,-99,NA,NA,0,1,-99,-99
"1055","nerve","bumper",31,1,-99,-99,NA,NA,0,1,-99,-99
"1055","need","faucet",32,1,-99,-99,NA,NA,0,0,-99,-99
"1055","rock","milk",33,1,-99,-99,NA,NA,1,1,-99,-99
"1055","caring","skirt",34,1,-99,-99,NA,NA,0,0,-99,-99
"1055","anger","decay",35,1,-99,-99,NA,NA,1,0,-99,-99
"1055","copy","bedroom",36,1,-99,-99,NA,NA,1,1,-99,-99
"1055","find","clown",37,1,-99,-99,NA,NA,0,1,-99,-99
"1055","fee","chowder",38,1,-99,-99,NA,NA,0,0,-99,-99
"1055","visit","glove",39,1,-99,-99,NA,NA,1,0,-99,-99
"1055","biology","temper",40,1,-99,-99,NA,NA,0,0,-99,-99
"1055","risk","zero",1,2,-99,-99,NA,NA,0,1,-99,-99
"1055","bacon","feud",2,2,-99,-99,NA,NA,0,0,-99,-99
"1055","bullet","walkway",3,2,-99,-99,NA,NA,1,1,-99,-99
"1055","chicken","beet",4,2,-99,-99,NA,NA,1,1,-99,-99
"1055","visit","glove",5,2,-99,-99,NA,NA,1,0,-99,-99
"1055","date","laugh",6,2,-99,-99,NA,NA,1,0,-99,-99
"1055","climax","saucer",7,2,-99,-99,NA,NA,0,0,-99,-99
"1055","calf","annoy",8,2,-99,-99,NA,NA,1,0,-99,-99
"1055","want","ascent",9,2,-99,-99,NA,NA,0,1,-99,-99
"1055","capital","figure",10,2,-99,-99,NA,NA,1,0,-99,-99
"1055","bias","sirloin",11,2,-99,-99,NA,NA,0,1,-99,-99
"1055","find","clown",12,2,-99,-99,NA,NA,0,1,-99,-99
"1055","caring","skirt",13,2,-99,-99,NA,NA,0,0,-99,-99
"1055","anger","decay",14,2,-99,-99,NA,NA,1,0,-99,-99
"1055","need","faucet",15,2,-99,-99,NA,NA,0,0,-99,-99
"1055","bleach","ruin",16,2,-99,-99,NA,NA,1,1,-99,-99
"1055","collect","loyalty",17,2,-99,-99,NA,NA,0,1,-99,-99
"1055","nerve","bumper",18,2,-99,-99,NA,NA,0,1,-99,-99
"1055","biology","temper",19,2,-99,-99,NA,NA,0,0,-99,-99
"1055","plant","worm",20,2,-99,-99,NA,NA,1,0,-99,-99
"1055","fee","chowder",21,2,-99,-99,NA,NA,0,0,-99,-99
"1055","replace","roach",22,2,-99,-99,NA,NA,1,1,-99,-99
"1055","grip","beach",23,2,-99,-99,NA,NA,0,1,-99,-99
"1055","pork","emperor",24,2,-99,-99,NA,NA,1,0,-99,-99
"1055","fan","feature",25,2,-99,-99,NA,NA,0,1,-99,-99
"1055","glue","force",26,2,-99,-99,NA,NA,0,0,-99,-99
"1055","shrink","mafia",27,2,-99,-99,NA,NA,1,1,-99,-99
"1055","port","cinema",28,2,-99,-99,NA,NA,1,0,-99,-99
"1055","process","joker",29,2,-99,-99,NA,NA,1,1,-99,-99
"1055","link","crisis",30,2,-99,-99,NA,NA,0,1,-99,-99
"1055","forest","knob",31,2,-99,-99,NA,NA,1,1,-99,-99
"1055","mill","feast",32,2,-99,-99,NA,NA,1,0,-99,-99
"1055","banner","glide",33,2,-99,-99,NA,NA,0,0,-99,-99
"1055","smother","surgery",34,2,-99,-99,NA,NA,0,0,-99,-99
"1055","remind","foam",35,2,-99,-99,NA,NA,1,1,-99,-99
"1055","pea","bathtub",36,2,-99,-99,NA,NA,0,1,-99,-99
"1055","rock","milk",37,2,-99,-99,NA,NA,1,1,-99,-99
"1055","prison","loaf",38,2,-99,-99,NA,NA,1,0,-99,-99
"1055","copy","bedroom",39,2,-99,-99,NA,NA,1,1,-99,-99
"1055","knock","otter",40,2,-99,-99,NA,NA,0,0,-99,-99
"1055","anger","decay",1,3,52,13.313,32,0.8,1,0,0,13.139
"1055","date","laugh",2,3,67,9.719,34,0.85,1,0,0,1.797
"1055","calf","annoy",3,3,49,45.151,31,0.775,1,0,0,1.206
"1055","collect","loyalty",4,3,34,4.763,25,0.625,0,1,0,2.328
"1055","bias","sirloin",5,3,30,10.637,22,0.55,0,1,0,0.997
"1055","prison","loaf",6,3,71,7.157,35,0.875,1,0,0,1.117
"1055","mill","feast",7,3,37,4.278,29,0.725,1,0,0,2.749
"1055","grip","beach",8,3,32,12.78,24,0.6,0,1,0,1.301
"1055","link","crisis",9,3,18,2.845,11,0.275,0,1,0,1.533
"1055","want","ascent",10,3,26,9.916,19,0.475,0,1,0,1.318
"1055","capital","figure",11,3,73,4.04,36,0.9,1,0,0,0.933
"1055","risk","zero",12,3,36,3.508,27,0.675,0,1,0,1.07
"1055","port","cinema",13,3,78,5.076,38,0.95,1,0,0,1.23
"1055","visit","glove",14,3,36,3.277,28,0.7,1,0,0,0.799
"1055","nerve","bumper",15,3,22,4.171,15,0.375,0,1,0,5.869
"1055","pea","bathtub",16,3,22,3.991,16,0.4,0,1,0,1.604
"1055","find","clown",17,3,16,3.376,5,0.125,0,1,0,8.109
"1055","pork","emperor",18,3,74,3.252,37,0.925,1,0,0,0.872
"1055","fan","feature",19,3,34,3.077,26,0.65,0,1,0,7.214
"1055","plant","worm",20,3,79,2.814,39,0.975,1,0,0,1.06
"1055","rock","milk",21,3,58,3.087,33,0.825,1,1,1,4.216
"1055","forest","knob",22,3,26,4.91,20,0.5,1,1,1,3.526
"1055","bleach","ruin",23,3,100,6.454,40,1,1,1,1,1.341
"1055","bullet","walkway",24,3,20,12.573,13,0.325,1,1,1,1.198
"1055","replace","roach",25,3,27,4.733,21,0.525,1,1,1,1.022
"1055","remind","foam",26,3,20,3.116,14,0.35,1,1,1,1.624
"1055","chicken","beet",27,3,41,5.526,30,0.75,1,1,1,1.741
"1055","bacon","feud",28,3,17,4.671,9,0.225,0,0,1,2.128
"1055","banner","glide",29,3,11,17.67,1,0.025,0,0,1,3.811
"1055","caring","skirt",30,3,11,4.035,2,0.05,0,0,1,6.829
"1055","process","joker",31,3,25,3.415,18,0.45,1,1,1,1.566
"1055","knock","otter",32,3,18,3.293,12,0.3,0,0,1,1.526
"1055","shrink","mafia",33,3,31,2.876,23,0.575,1,1,1,7.255
"1055","need","faucet",34,3,16,3.503,6,0.15,0,0,1,1.135
"1055","glue","force",35,3,15,4.11,3,0.075,0,0,1,7.631
"1055","climax","saucer",36,3,15,8.309,4,0.1,0,0,1,1.39
"1055","copy","bedroom",37,3,22,3.797,17,0.425,1,1,1,1.23
"1055","biology","temper",38,3,17,3.02,10,0.25,0,0,1,8.072
"1055","smother","surgery",39,3,16,8.245,7,0.175,0,0,1,1.045
"1055","fee","chowder",40,3,16,2.743,8,0.2,0,0,1,1.31
"1732","need","faucet",1,1,-99,-99,NA,NA,1,1,-99,-99
"1732","bacon","feud",2,1,-99,-99,NA,NA,1,1,-99,-99
"1732","biology","temper",3,1,-99,-99,NA,NA,1,0,-99,-99
"1732","capital","figure",4,1,-99,-99,NA,NA,1,0,-99,-99
"1732","want","ascent",5,1,-99,-99,NA,NA,0,0,-99,-99
"1732","process","joker",6,1,-99,-99,NA,NA,0,0,-99,-99
"1732","grip","beach",7,1,-99,-99,NA,NA,1,1,-99,-99
"1732","copy","bedroom",8,1,-99,-99,NA,NA,0,0,-99,-99
"1732","bias","sirloin",9,1,-99,-99,NA,NA,1,0,-99,-99
"1732","remind","foam",10,1,-99,-99,NA,NA,1,1,-99,-99
"1732","caring","skirt",11,1,-99,-99,NA,NA,0,1,-99,-99
"1732","forest","knob",12,1,-99,-99,NA,NA,0,0,-99,-99
"1732","date","laugh",13,1,-99,-99,NA,NA,0,1,-99,-99
"1732","find","clown",14,1,-99,-99,NA,NA,1,0,-99,-99
"1732","collect","loyalty",15,1,-99,-99,NA,NA,1,1,-99,-99
"1732","fan","feature",16,1,-99,-99,NA,NA,1,1,-99,-99
"1732","bleach","ruin",17,1,-99,-99,NA,NA,1,0,-99,-99
"1732","replace","roach",18,1,-99,-99,NA,NA,0,1,-99,-99
"1732","plant","worm",19,1,-99,-99,NA,NA,1,0,-99,-99
"1732","risk","zero",20,1,-99,-99,NA,NA,0,1,-99,-99
"1732","smother","surgery",21,1,-99,-99,NA,NA,0,1,-99,-99
"1732","pea","bathtub",22,1,-99,-99,NA,NA,1,0,-99,-99
"1732","knock","otter",23,1,-99,-99,NA,NA,1,1,-99,-99
"1732","chicken","beet",24,1,-99,-99,NA,NA,0,0,-99,-99
"1732","link","crisis",25,1,-99,-99,NA,NA,1,1,-99,-99
"1732","fee","chowder",26,1,-99,-99,NA,NA,0,0,-99,-99
"1732","rock","milk",27,1,-99,-99,NA,NA,0,1,-99,-99
"1732","shrink","mafia",28,1,-99,-99,NA,NA,1,1,-99,-99
"1732","climax","saucer",29,1,-99,-99,NA,NA,0,0,-99,-99
"1732","glue","force",30,1,-99,-99,NA,NA,0,1,-99,-99
"1732","bullet","walkway",31,1,-99,-99,NA,NA,0,1,-99,-99
"1732","calf","annoy",32,1,-99,-99,NA,NA,1,0,-99,-99
"1732","port","cinema",33,1,-99,-99,NA,NA,1,1,-99,-99
"1732","banner","glide",34,1,-99,-99,NA,NA,0,1,-99,-99
"1732","anger","decay",35,1,-99,-99,NA,NA,0,0,-99,-99
"1732","prison","loaf",36,1,-99,-99,NA,NA,0,0,-99,-99
"1732","pork","emperor",37,1,-99,-99,NA,NA,1,0,-99,-99
"1732","mill","feast",38,1,-99,-99,NA,NA,1,0,-99,-99
"1732","visit","glove",39,1,-99,-99,NA,NA,0,1,-99,-99
"1732","nerve","bumper",40,1,-99,-99,NA,NA,0,0,-99,-99
"1732","bias","sirloin",1,2,-99,-99,NA,NA,1,0,-99,-99
"1732","bullet","walkway",2,2,-99,-99,NA,NA,0,1,-99,-99
"1732","process","joker",3,2,-99,-99,NA,NA,0,0,-99,-99
"1732","smother","surgery",4,2,-99,-99,NA,NA,0,1,-99,-99
"1732","collect","loyalty",5,2,-99,-99,NA,NA,1,1,-99,-99
"1732","forest","knob",6,2,-99,-99,NA,NA,0,0,-99,-99
"1732","find","clown",7,2,-99,-99,NA,NA,1,0,-99,-99
"1732","port","cinema",8,2,-99,-99,NA,NA,1,1,-99,-99
"1732","replace","roach",9,2,-99,-99,NA,NA,0,1,-99,-99
"1732","mill","feast",10,2,-99,-99,NA,NA,1,0,-99,-99
"1732","shrink","mafia",11,2,-99,-99,NA,NA,1,1,-99,-99
"1732","bacon","feud",12,2,-99,-99,NA,NA,1,1,-99,-99
"1732","risk","zero",13,2,-99,-99,NA,NA,0,1,-99,-99
"1732","grip","beach",14,2,-99,-99,NA,NA,1,1,-99,-99
"1732","biology","temper",15,2,-99,-99,NA,NA,1,0,-99,-99
"1732","calf","annoy",16,2,-99,-99,NA,NA,1,0,-99,-99
"1732","caring","skirt",17,2,-99,-99,NA,NA,0,1,-99,-99
"1732","fan","feature",18,2,-99,-99,NA,NA,1,1,-99,-99
"1732","chicken","beet",19,2,-99,-99,NA,NA,0,0,-99,-99
"1732","bleach","ruin",20,2,-99,-99,NA,NA,1,0,-99,-99
"1732","pea","bathtub",21,2,-99,-99,NA,NA,1,0,-99,-99
"1732","glue","force",22,2,-99,-99,NA,NA,0,1,-99,-99
"1732","pork","emperor",23,2,-99,-99,NA,NA,1,0,-99,-99
"1732","climax","saucer",24,2,-99,-99,NA,NA,0,0,-99,-99
"1732","plant","worm",25,2,-99,-99,NA,NA,1,0,-99,-99
"1732","copy","bedroom",26,2,-99,-99,NA,NA,0,0,-99,-99
"1732","fee","chowder",27,2,-99,-99,NA,NA,0,0,-99,-99
"1732","knock","otter",28,2,-99,-99,NA,NA,1,1,-99,-99
"1732","capital","figure",29,2,-99,-99,NA,NA,1,0,-99,-99
"1732","visit","glove",30,2,-99,-99,NA,NA,0,1,-99,-99
"1732","anger","decay",31,2,-99,-99,NA,NA,0,0,-99,-99
"1732","date","laugh",32,2,-99,-99,NA,NA,0,1,-99,-99
"1732","need","faucet",33,2,-99,-99,NA,NA,1,1,-99,-99
"1732","nerve","bumper",34,2,-99,-99,NA,NA,0,0,-99,-99
"1732","rock","milk",35,2,-99,-99,NA,NA,0,1,-99,-99
"1732","remind","foam",36,2,-99,-99,NA,NA,1,1,-99,-99
"1732","prison","loaf",37,2,-99,-99,NA,NA,0,0,-99,-99
"1732","banner","glide",38,2,-99,-99,NA,NA,0,1,-99,-99
"1732","want","ascent",39,2,-99,-99,NA,NA,0,0,-99,-99
"1732","link","crisis",40,2,-99,-99,NA,NA,1,1,-99,-99
"1732","bullet","walkway",1,3,52,4.636,36,0.9,0,1,0,12.511
"1732","copy","bedroom",2,3,46,3.173,30,0.75,0,0,1,1.223
"1732","want","ascent",3,3,47,3.503,32,0.8,0,0,1,1.335
"1732","fan","feature",4,3,40,3.071,22,0.55,1,1,1,1.319
"1732","fee","chowder",5,3,42,2.767,25,0.625,0,0,1,1.216
"1732","collect","loyalty",6,3,40,2.783,23,0.575,1,1,1,2.029
"1732","climax","saucer",7,3,44,2.943,28,0.7,0,0,1,1.103
"1732","bacon","feud",8,3,37,2.791,16,0.4,1,1,1,1.167
"1732","port","cinema",9,3,38,2.839,17,0.425,1,1,1,1.087
"1732","nerve","bumper",10,3,44,2.679,29,0.725,0,0,1,1.367
"1732","forest","knob",11,3,46,3.287,31,0.775,0,0,1,1.081
"1732","mill","feast",12,3,10,4.316,1,0.025,1,0,0,1.223
"1732","anger","decay",13,3,65,3.151,38,0.95,0,0,1,1.055
"1732","pea","bathtub",14,3,21,3.599,3,0.075,1,0,0,1.391
"1732","need","faucet",15,3,38,2.735,18,0.45,1,1,1,1.879
"1732","chicken","beet",16,3,71,3.295,39,0.975,0,0,1,1.215
"1732","grip","beach",17,3,39,3.471,21,0.525,1,1,1,1.215
"1732","link","crisis",18,3,33,2.391,8,0.2,1,1,1,0.975
"1732","prison","loaf",19,3,100,3.51,40,1,0,0,1,1.335
"1732","knock","otter",20,3,34,3.004,9,0.225,1,1,1,1.367
"1732","process","joker",21,3,42,2.423,26,0.65,0,0,1,0.976
"1732","shrink","mafia",22,3,34,2.229,10,0.25,1,1,1,1.015
"1732","remind","foam",23,3,35,2.238,12,0.3,1,1,1,1.087
"1732","pork","emperor",24,3,35,2.543,13,0.325,1,0,0,2.463
"1732","caring","skirt",25,3,50,4.175,35,0.875,0,1,0,0.959
"1732","glue","force",26,3,47,4.015,33,0.825,0,1,0,1.014
"1732","banner","glide",27,3,48,2.238,34,0.85,0,1,0,0.959
"1732","rock","milk",28,3,42,2.127,27,0.675,0,1,0,1.199
"1732","bias","sirloin",29,3,22,4.228,4,0.1,1,0,0,1.048
"1732","biology","temper",30,3,27,2.637,5,0.125,1,0,0,0.967
"1732","replace","roach",31,3,40,2.535,24,0.6,0,1,0,1.207
"1732","find","clown",32,3,34,2.327,11,0.275,1,0,0,1.022
"1732","smother","surgery",33,3,38,2.327,19,0.475,0,1,0,1.183
"1732","bleach","ruin",34,3,30,2.471,6,0.15,1,0,0,0.935
"1732","plant","worm",35,3,36,2.575,14,0.35,1,0,0,1.055
"1732","visit","glove",36,3,36,2.671,15,0.375,0,1,0,1.303
"1732","date","laugh",37,3,38,2.151,20,0.5,0,1,0,0.871
"1732","risk","zero",38,3,54,2.319,37,0.925,0,1,0,0.983
"1732","calf","annoy",39,3,18,3.479,2,0.05,1,0,0,0.967
"1732","capital","figure",40,3,30,2.893,7,0.175,1,0,0,1.119
"1762","bias","sirloin",1,1,-99,-99,NA,NA,0,0,-99,-99
"1762","anger","decay",2,1,-99,-99,NA,NA,0,0,-99,-99
"1762","fee","chowder",3,1,-99,-99,NA,NA,0,1,-99,-99
"1762","bleach","ruin",4,1,-99,-99,NA,NA,1,1,-99,-99
"1762","pea","bathtub",5,1,-99,-99,NA,NA,0,0,-99,-99
"1762","calf","annoy",6,1,-99,-99,NA,NA,0,1,-99,-99
"1762","date","laugh",7,1,-99,-99,NA,NA,0,0,-99,-99
"1762","forest","knob",8,1,-99,-99,NA,NA,1,0,-99,-99
"1762","port","cinema",9,1,-99,-99,NA,NA,1,1,-99,-99
"1762","bullet","walkway",10,1,-99,-99,NA,NA,0,1,-99,-99
"1762","nerve","bumper",11,1,-99,-99,NA,NA,1,1,-99,-99
"1762","visit","glove",12,1,-99,-99,NA,NA,1,1,-99,-99
"1762","want","ascent",13,1,-99,-99,NA,NA,1,0,-99,-99
"1762","glue","force",14,1,-99,-99,NA,NA,1,1,-99,-99
"1762","climax","saucer",15,1,-99,-99,NA,NA,0,0,-99,-99
"1762","risk","zero",16,1,-99,-99,NA,NA,1,0,-99,-99
"1762","caring","skirt",17,1,-99,-99,NA,NA,1,1,-99,-99
"1762","shrink","mafia",18,1,-99,-99,NA,NA,0,1,-99,-99
"1762","smother","surgery",19,1,-99,-99,NA,NA,0,0,-99,-99
"1762","chicken","beet",20,1,-99,-99,NA,NA,0,0,-99,-99
"1762","capital","figure",21,1,-99,-99,NA,NA,1,1,-99,-99
"1762","mill","feast",22,1,-99,-99,NA,NA,1,1,-99,-99
"1762","prison","loaf",23,1,-99,-99,NA,NA,1,0,-99,-99
"1762","find","clown",24,1,-99,-99,NA,NA,1,1,-99,-99
"1762","rock","milk",25,1,-99,-99,NA,NA,0,1,-99,-99
"1762","knock","otter",26,1,-99,-99,NA,NA,1,0,-99,-99
"1762","pork","emperor",27,1,-99,-99,NA,NA,0,0,-99,-99
"1762","process","joker",28,1,-99,-99,NA,NA,1,0,-99,-99
"1762","plant","worm",29,1,-99,-99,NA,NA,0,1,-99,-99
"1762","fan","feature",30,1,-99,-99,NA,NA,0,1,-99,-99
"1762","remind","foam",31,1,-99,-99,NA,NA,0,0,-99,-99
"1762","banner","glide",32,1,-99,-99,NA,NA,1,0,-99,-99
"1762","collect","loyalty",33,1,-99,-99,NA,NA,1,1,-99,-99
"1762","link","crisis",34,1,-99,-99,NA,NA,0,1,-99,-99
"1762","bacon","feud",35,1,-99,-99,NA,NA,0,1,-99,-99
"1762","grip","beach",36,1,-99,-99,NA,NA,0,0,-99,-99
"1762","need","faucet",37,1,-99,-99,NA,NA,0,1,-99,-99
"1762","copy","bedroom",38,1,-99,-99,NA,NA,1,0,-99,-99
"1762","biology","temper",39,1,-99,-99,NA,NA,1,0,-99,-99
"1762","replace","roach",40,1,-99,-99,NA,NA,1,0,-99,-99
"1762","calf","annoy",1,2,-99,-99,NA,NA,0,1,-99,-99
"1762","prison","loaf",2,2,-99,-99,NA,NA,1,0,-99,-99
"1762","replace","roach",3,2,-99,-99,NA,NA,1,0,-99,-99
"1762","need","faucet",4,2,-99,-99,NA,NA,0,1,-99,-99
"1762","mill","feast",5,2,-99,-99,NA,NA,1,1,-99,-99
"1762","copy","bedroom",6,2,-99,-99,NA,NA,1,0,-99,-99
"1762","bacon","feud",7,2,-99,-99,NA,NA,0,1,-99,-99
"1762","capital","figure",8,2,-99,-99,NA,NA,1,1,-99,-99
"1762","want","ascent",9,2,-99,-99,NA,NA,1,0,-99,-99
"1762","rock","milk",10,2,-99,-99,NA,NA,0,1,-99,-99
"1762","fan","feature",11,2,-99,-99,NA,NA,0,1,-99,-99
"1762","bleach","ruin",12,2,-99,-99,NA,NA,1,1,-99,-99
"1762","collect","loyalty",13,2,-99,-99,NA,NA,1,1,-99,-99
"1762","caring","skirt",14,2,-99,-99,NA,NA,1,1,-99,-99
"1762","glue","force",15,2,-99,-99,NA,NA,1,1,-99,-99
"1762","nerve","bumper",16,2,-99,-99,NA,NA,1,1,-99,-99
"1762","visit","glove",17,2,-99,-99,NA,NA,1,1,-99,-99
"1762","anger","decay",18,2,-99,-99,NA,NA,0,0,-99,-99
"1762","remind","foam",19,2,-99,-99,NA,NA,0,0,-99,-99
"1762","grip","beach",20,2,-99,-99,NA,NA,0,0,-99,-99
"1762","fee","chowder",21,2,-99,-99,NA,NA,0,1,-99,-99
"1762","pork","emperor",22,2,-99,-99,NA,NA,0,0,-99,-99
"1762","bias","sirloin",23,2,-99,-99,NA,NA,0,0,-99,-99
"1762","port","cinema",24,2,-99,-99,NA,NA,1,1,-99,-99
"1762","chicken","beet",25,2,-99,-99,NA,NA,0,0,-99,-99
"1762","forest","knob",26,2,-99,-99,NA,NA,1,0,-99,-99
"1762","pea","bathtub",27,2,-99,-99,NA,NA,0,0,-99,-99
"1762","plant","worm",28,2,-99,-99,NA,NA,0,1,-99,-99
"1762","banner","glide",29,2,-99,-99,NA,NA,1,0,-99,-99
"1762","process","joker",30,2,-99,-99,NA,NA,1,0,-99,-99
"1762","knock","otter",31,2,-99,-99,NA,NA,1,0,-99,-99
"1762","shrink","mafia",32,2,-99,-99,NA,NA,0,1,-99,-99
"1762","find","clown",33,2,-99,-99,NA,NA,1,1,-99,-99
"1762","biology","temper",34,2,-99,-99,NA,NA,1,0,-99,-99
"1762","link","crisis",35,2,-99,-99,NA,NA,0,1,-99,-99
"1762","smother","surgery",36,2,-99,-99,NA,NA,0,0,-99,-99
"1762","risk","zero",37,2,-99,-99,NA,NA,1,0,-99,-99
"1762","climax","saucer",38,2,-99,-99,NA,NA,0,0,-99,-99
"1762","date","laugh",39,2,-99,-99,NA,NA,0,0,-99,-99
"1762","bullet","walkway",40,2,-99,-99,NA,NA,0,1,-99,-99
"1762","plant","worm",1,3,23,10.558,31,0.775,0,1,0,2.786
"1762","smother","surgery",2,3,77,4.83,34,0.85,0,0,1,7.871
"1762","port","cinema",3,3,1,4.573,1,0.025,1,1,1,1.839
"1762","process","joker",4,3,1,3.821,2,0.05,1,0,0,4.55
"1762","replace","roach",5,3,1,3.906,3,0.075,1,0,0,1.159
"1762","risk","zero",6,3,1,2.913,4,0.1,1,0,0,1.157
"1762","capital","figure",7,3,1,2.137,5,0.125,1,1,1,0.987
"1762","climax","saucer",8,3,100,2.583,35,0.875,0,0,1,1.417
"1762","bleach","ruin",9,3,1,3.021,6,0.15,1,1,1,2.397
"1762","prison","loaf",10,3,1,2.231,7,0.175,1,0,0,0.971
"1762","banner","glide",11,3,1,1.963,8,0.2,1,0,0,0.837
"1762","biology","temper",12,3,1,2.193,9,0.225,1,0,0,0.743
"1762","pea","bathtub",13,3,100,2.191,36,0.9,0,0,1,1.509
"1762","copy","bedroom",14,3,1,2.849,10,0.25,1,0,0,0.571
"1762","want","ascent",15,3,1,2.325,11,0.275,1,0,0,0.727
"1762","knock","otter",16,3,1,2.107,12,0.3,1,0,0,1.128
"1762","date","laugh",17,3,100,2.151,37,0.925,0,0,1,1.167
"1762","forest","knob",18,3,1,2.371,13,0.325,1,0,0,0.979
"1762","bacon","feud",19,3,1,2.191,14,0.35,0,1,0,1.157
"1762","shrink","mafia",20,3,1,2.199,15,0.375,0,1,0,2.177
"1762","link","crisis",21,3,3,2.731,30,0.75,0,1,0,1.331
"1762","fan","feature",22,3,1,7.181,16,0.4,0,1,0,0.727
"1762","need","faucet",23,3,1,2.395,17,0.425,0,1,0,1.049
"1762","fee","chowder",24,3,1,2.717,18,0.45,0,1,0,1.095
"1762","pork","emperor",25,3,100,2.491,38,0.95,0,0,1,1.197
"1762","rock","milk",26,3,1,1.909,19,0.475,0,1,0,0.673
"1762","calf","annoy",27,3,27,2.419,32,0.8,0,1,0,0.703
"1762","bias","sirloin",28,3,72,3.375,33,0.825,0,0,1,0.688
"1762","bullet","walkway",29,3,1,2.255,20,0.5,0,1,0,0.875
"1762","mill","feast",30,3,1,1.904,21,0.525,1,1,1,0.984
"1762","visit","glove",31,3,1,2.231,22,0.55,1,1,1,0.735
"1762","glue","force",32,3,1,1.683,23,0.575,1,1,1,0.719
"1762","anger","decay",33,3,100,2.765,39,0.975,0,0,1,0.679
"1762","caring","skirt",34,3,1,2.271,24,0.6,1,1,1,0.673
"1762","find","clown",35,3,1,1.754,25,0.625,1,1,1,0.617
"1762","collect","loyalty",36,3,1,3.679,26,0.65,1,1,1,0.525
"1762","chicken","beet",37,3,100,2.631,40,1,0,0,1,0.813
"1762","nerve","bumper",38,3,1,2.959,27,0.675,1,1,1,1.385
"1762","remind","foam",39,3,1,2.435,28,0.7,0,0,1,0.853
"1762","grip","beach",40,3,1,2.594,29,0.725,0,0,1,0.694
"1803","copy","bedroom",1,1,-99,-99,NA,NA,1,0,-99,-99
"1803","rock","milk",2,1,-99,-99,NA,NA,0,1,-99,-99
"1803","glue","force",3,1,-99,-99,NA,NA,0,1,-99,-99
"1803","chicken","beet",4,1,-99,-99,NA,NA,0,1,-99,-99
"1803","collect","loyalty",5,1,-99,-99,NA,NA,1,0,-99,-99
"1803","fan","feature",6,1,-99,-99,NA,NA,0,0,-99,-99
"1803","mill","feast",7,1,-99,-99,NA,NA,1,0,-99,-99
"1803","forest","knob",8,1,-99,-99,NA,NA,0,0,-99,-99
"1803","shrink","mafia",9,1,-99,-99,NA,NA,1,0,-99,-99
"1803","bias","sirloin",10,1,-99,-99,NA,NA,1,1,-99,-99
"1803","knock","otter",11,1,-99,-99,NA,NA,1,0,-99,-99
"1803","capital","figure",12,1,-99,-99,NA,NA,1,0,-99,-99
"1803","need","faucet",13,1,-99,-99,NA,NA,0,1,-99,-99
"1803","pea","bathtub",14,1,-99,-99,NA,NA,0,0,-99,-99
"1803","find","clown",15,1,-99,-99,NA,NA,0,1,-99,-99
"1803","link","crisis",16,1,-99,-99,NA,NA,0,0,-99,-99
"1803","climax","saucer",17,1,-99,-99,NA,NA,0,1,-99,-99
"1803","date","laugh",18,1,-99,-99,NA,NA,1,1,-99,-99
"1803","process","joker",19,1,-99,-99,NA,NA,1,0,-99,-99
"1803","pork","emperor",20,1,-99,-99,NA,NA,1,1,-99,-99
"1803","bleach","ruin",21,1,-99,-99,NA,NA,1,0,-99,-99
"1803","replace","roach",22,1,-99,-99,NA,NA,1,0,-99,-99
"1803","bullet","walkway",23,1,-99,-99,NA,NA,1,1,-99,-99
"1803","plant","worm",24,1,-99,-99,NA,NA,0,0,-99,-99
"1803","smother","surgery",25,1,-99,-99,NA,NA,1,1,-99,-99
"1803","remind","foam",26,1,-99,-99,NA,NA,0,0,-99,-99
"1803","caring","skirt",27,1,-99,-99,NA,NA,0,1,-99,-99
"1803","want","ascent",28,1,-99,-99,NA,NA,0,0,-99,-99
"1803","anger","decay",29,1,-99,-99,NA,NA,1,1,-99,-99
"1803","prison","loaf",30,1,-99,-99,NA,NA,1,1,-99,-99
"1803","banner","glide",31,1,-99,-99,NA,NA,0,1,-99,-99
"1803","visit","glove",32,1,-99,-99,NA,NA,0,1,-99,-99
"1803","calf","annoy",33,1,-99,-99,NA,NA,0,0,-99,-99
"1803","bacon","feud",34,1,-99,-99,NA,NA,0,0,-99,-99
"1803","port","cinema",35,1,-99,-99,NA,NA,0,0,-99,-99
"1803","nerve","bumper",36,1,-99,-99,NA,NA,0,1,-99,-99
"1803","fee","chowder",37,1,-99,-99,NA,NA,1,0,-99,-99
"1803","biology","temper",38,1,-99,-99,NA,NA,1,1,-99,-99
"1803","grip","beach",39,1,-99,-99,NA,NA,1,1,-99,-99
"1803","risk","zero",40,1,-99,-99,NA,NA,1,1,-99,-99
"1803","find","clown",1,2,-99,-99,NA,NA,0,1,-99,-99
"1803","link","crisis",2,2,-99,-99,NA,NA,0,0,-99,-99
"1803","replace","roach",3,2,-99,-99,NA,NA,1,0,-99,-99
"1803","prison","loaf",4,2,-99,-99,NA,NA,1,1,-99,-99
"1803","bullet","walkway",5,2,-99,-99,NA,NA,1,1,-99,-99
"1803","knock","otter",6,2,-99,-99,NA,NA,1,0,-99,-99
"1803","pork","emperor",7,2,-99,-99,NA,NA,1,1,-99,-99
"1803","port","cinema",8,2,-99,-99,NA,NA,0,0,-99,-99
"1803","capital","figure",9,2,-99,-99,NA,NA,1,0,-99,-99
"1803","bacon","feud",10,2,-99,-99,NA,NA,0,0,-99,-99
"1803","grip","beach",11,2,-99,-99,NA,NA,1,1,-99,-99
"1803","fan","feature",12,2,-99,-99,NA,NA,0,0,-99,-99
"1803","banner","glide",13,2,-99,-99,NA,NA,0,1,-99,-99
"1803","need","faucet",14,2,-99,-99,NA,NA,0,1,-99,-99
"1803","forest","knob",15,2,-99,-99,NA,NA,0,0,-99,-99
"1803","mill","feast",16,2,-99,-99,NA,NA,1,0,-99,-99
"1803","smother","surgery",17,2,-99,-99,NA,NA,1,1,-99,-99
"1803","climax","saucer",18,2,-99,-99,NA,NA,0,1,-99,-99
"1803","pea","bathtub",19,2,-99,-99,NA,NA,0,0,-99,-99
"1803","want","ascent",20,2,-99,-99,NA,NA,0,0,-99,-99
"1803","visit","glove",21,2,-99,-99,NA,NA,0,1,-99,-99
"1803","plant","worm",22,2,-99,-99,NA,NA,0,0,-99,-99
"1803","process","joker",23,2,-99,-99,NA,NA,1,0,-99,-99
"1803","shrink","mafia",24,2,-99,-99,NA,NA,1,0,-99,-99
"1803","date","laugh",25,2,-99,-99,NA,NA,1,1,-99,-99
"1803","caring","skirt",26,2,-99,-99,NA,NA,0,1,-99,-99
"1803","anger","decay",27,2,-99,-99,NA,NA,1,1,-99,-99
"1803","bleach","ruin",28,2,-99,-99,NA,NA,1,0,-99,-99
"1803","glue","force",29,2,-99,-99,NA,NA,0,1,-99,-99
"1803","risk","zero",30,2,-99,-99,NA,NA,1,1,-99,-99
"1803","chicken","beet",31,2,-99,-99,NA,NA,0,1,-99,-99
"1803","nerve","bumper",32,2,-99,-99,NA,NA,0,1,-99,-99
"1803","calf","annoy",33,2,-99,-99,NA,NA,0,0,-99,-99
"1803","bias","sirloin",34,2,-99,-99,NA,NA,1,1,-99,-99
"1803","copy","bedroom",35,2,-99,-99,NA,NA,1,0,-99,-99
"1803","remind","foam",36,2,-99,-99,NA,NA,0,0,-99,-99
"1803","rock","milk",37,2,-99,-99,NA,NA,0,1,-99,-99
"1803","collect","loyalty",38,2,-99,-99,NA,NA,1,0,-99,-99
"1803","biology","temper",39,2,-99,-99,NA,NA,1,1,-99,-99
"1803","fee","chowder",40,2,-99,-99,NA,NA,1,0,-99,-99
"1803","risk","zero",1,3,100,20.909,37,0.925,1,1,1,8.589
"1803","caring","skirt",2,3,1,11.046,1,0.025,0,1,0,2.775
"1803","glue","force",3,3,1,6.543,2,0.05,0,1,0,2.023
"1803","nerve","bumper",4,3,1,5.015,3,0.075,0,1,0,0.83
"1803","banner","glide",5,3,1,2.487,4,0.1,0,1,0,3.911
"1803","grip","beach",6,3,100,9.647,38,0.95,1,1,1,1.247
"1803","anger","decay",7,3,100,5.758,39,0.975,1,1,1,1.071
"1803","copy","bedroom",8,3,25,10.375,33,0.825,1,0,0,1.303
"1803","rock","milk",9,3,1,7.663,5,0.125,0,1,0,1.064
"1803","smother","surgery",10,3,21,18.95,32,0.8,1,1,1,1.223
"1803","bias","sirloin",11,3,25,5.255,34,0.85,1,1,1,5.207
"1803","chicken","beet",12,3,1,19.031,6,0.15,0,1,0,0.83
"1803","need","faucet",13,3,1,4.047,7,0.175,0,1,0,1.276
"1803","visit","glove",14,3,1,6.543,8,0.2,0,1,0,1.072
"1803","climax","saucer",15,3,1,13.182,9,0.225,0,1,0,0.839
"1803","date","laugh",16,3,72,6.143,35,0.875,1,1,1,0.999
"1803","find","clown",17,3,1,3.567,10,0.25,0,1,0,1.839
"1803","shrink","mafia",18,3,1,6.063,11,0.275,1,0,0,1.159
"1803","capital","figure",19,3,1,8.247,12,0.3,1,0,0,1.263
"1803","biology","temper",20,3,74,11.111,36,0.9,1,1,1,0.912
"1803","bleach","ruin",21,3,1,16.086,13,0.325,1,0,0,1.095
"1803","replace","roach",22,3,1,3.127,14,0.35,1,0,0,1.247
"1803","mill","feast",23,3,2,2.983,31,0.775,1,0,0,1.423
"1803","knock","otter",24,3,1,3.617,15,0.375,1,0,0,1.285
"1803","collect","loyalty",25,3,1,15.527,16,0.4,1,0,0,0.599
"1803","process","joker",26,3,1,6.591,17,0.425,1,0,0,0.734
"1803","fee","chowder",27,3,1,7.712,18,0.45,1,0,0,0.838
"1803","prison","loaf",28,3,100,5.367,40,1,1,1,1,1.624
"1803","bacon","feud",29,3,1,2.91,19,0.475,0,0,1,2.863
"1803","fan","feature",30,3,1,2.615,20,0.5,0,0,1,0.767
"1803","pea","bathtub",31,3,1,2.231,21,0.525,0,0,1,0.679
"1803","link","crisis",32,3,1,1.983,22,0.55,0,0,1,0.719
"1803","forest","knob",33,3,1,2.079,23,0.575,0,0,1,0.703
"1803","calf","annoy",34,3,1,2.015,24,0.6,0,0,1,0.711
"1803","remind","foam",35,3,1,2.039,25,0.625,0,0,1,0.798
"1803","plant","worm",36,3,1,2.799,26,0.65,0,0,1,0.695
"1803","want","ascent",37,3,1,1.768,27,0.675,0,0,1,0.814
"1803","port","cinema",38,3,1,2.072,28,0.7,0,0,1,0.888
"1803","pork","emperor",39,3,1,2.151,29,0.725,1,1,1,0.839
"1803","bullet","walkway",40,3,1,4.6,30,0.75,1,1,1,0.727
"1818","biology","temper",1,1,-99,-99,NA,NA,0,0,-99,-99
"1818","remind","foam",2,1,-99,-99,NA,NA,0,1,-99,-99
"1818","replace","roach",3,1,-99,-99,NA,NA,0,1,-99,-99
"1818","visit","glove",4,1,-99,-99,NA,NA,0,1,-99,-99
"1818","caring","skirt",5,1,-99,-99,NA,NA,1,0,-99,-99
"1818","anger","decay",6,1,-99,-99,NA,NA,0,0,-99,-99
"1818","pea","bathtub",7,1,-99,-99,NA,NA,0,0,-99,-99
"1818","glue","force",8,1,-99,-99,NA,NA,0,1,-99,-99
"1818","find","clown",9,1,-99,-99,NA,NA,1,1,-99,-99
"1818","capital","figure",10,1,-99,-99,NA,NA,0,0,-99,-99
"1818","calf","annoy",11,1,-99,-99,NA,NA,0,1,-99,-99
"1818","bleach","ruin",12,1,-99,-99,NA,NA,1,0,-99,-99
"1818","bullet","walkway",13,1,-99,-99,NA,NA,0,0,-99,-99
"1818","banner","glide",14,1,-99,-99,NA,NA,0,1,-99,-99
"1818","knock","otter",15,1,-99,-99,NA,NA,1,1,-99,-99
"1818","mill","feast",16,1,-99,-99,NA,NA,1,1,-99,-99
"1818","rock","milk",17,1,-99,-99,NA,NA,1,0,-99,-99
"1818","process","joker",18,1,-99,-99,NA,NA,1,1,-99,-99
"1818","shrink","mafia",19,1,-99,-99,NA,NA,0,1,-99,-99
"1818","prison","loaf",20,1,-99,-99,NA,NA,1,1,-99,-99
"1818","link","crisis",21,1,-99,-99,NA,NA,1,1,-99,-99
"1818","bias","sirloin",22,1,-99,-99,NA,NA,1,1,-99,-99
"1818","fee","chowder",23,1,-99,-99,NA,NA,1,0,-99,-99
"1818","grip","beach",24,1,-99,-99,NA,NA,1,0,-99,-99
"1818","want","ascent",25,1,-99,-99,NA,NA,0,1,-99,-99
"1818","climax","saucer",26,1,-99,-99,NA,NA,0,0,-99,-99
"1818","need","faucet",27,1,-99,-99,NA,NA,1,0,-99,-99
"1818","pork","emperor",28,1,-99,-99,NA,NA,0,0,-99,-99
"1818","nerve","bumper",29,1,-99,-99,NA,NA,0,1,-99,-99
"1818","bacon","feud",30,1,-99,-99,NA,NA,1,1,-99,-99
"1818","risk","zero",31,1,-99,-99,NA,NA,0,0,-99,-99
"1818","copy","bedroom",32,1,-99,-99,NA,NA,1,0,-99,-99
"1818","forest","knob",33,1,-99,-99,NA,NA,1,0,-99,-99
"1818","chicken","beet",34,1,-99,-99,NA,NA,1,1,-99,-99
"1818","smother","surgery",35,1,-99,-99,NA,NA,0,1,-99,-99
"1818","date","laugh",36,1,-99,-99,NA,NA,1,0,-99,-99
"1818","collect","loyalty",37,1,-99,-99,NA,NA,0,0,-99,-99
"1818","plant","worm",38,1,-99,-99,NA,NA,0,0,-99,-99
"1818","fan","feature",39,1,-99,-99,NA,NA,1,0,-99,-99
"1818","port","cinema",40,1,-99,-99,NA,NA,1,1,-99,-99
"1818","nerve","bumper",1,2,-99,-99,NA,NA,0,1,-99,-99
"1818","link","crisis",2,2,-99,-99,NA,NA,1,1,-99,-99
"1818","shrink","mafia",3,2,-99,-99,NA,NA,0,1,-99,-99
"1818","mill","feast",4,2,-99,-99,NA,NA,1,1,-99,-99
"1818","bleach","ruin",5,2,-99,-99,NA,NA,1,0,-99,-99
"1818","calf","annoy",6,2,-99,-99,NA,NA,0,1,-99,-99
"1818","fan","feature",7,2,-99,-99,NA,NA,1,0,-99,-99
"1818","bias","sirloin",8,2,-99,-99,NA,NA,1,1,-99,-99
"1818","process","joker",9,2,-99,-99,NA,NA,1,1,-99,-99
"1818","grip","beach",10,2,-99,-99,NA,NA,1,0,-99,-99
"1818","plant","worm",11,2,-99,-99,NA,NA,0,0,-99,-99
"1818","pork","emperor",12,2,-99,-99,NA,NA,0,0,-99,-99
"1818","knock","otter",13,2,-99,-99,NA,NA,1,1,-99,-99
"1818","climax","saucer",14,2,-99,-99,NA,NA,0,0,-99,-99
"1818","risk","zero",15,2,-99,-99,NA,NA,0,0,-99,-99
"1818","bacon","feud",16,2,-99,-99,NA,NA,1,1,-99,-99
"1818","fee","chowder",17,2,-99,-99,NA,NA,1,0,-99,-99
"1818","caring","skirt",18,2,-99,-99,NA,NA,1,0,-99,-99
"1818","replace","roach",19,2,-99,-99,NA,NA,0,1,-99,-99
"1818","rock","milk",20,2,-99,-99,NA,NA,1,0,-99,-99
"1818","want","ascent",21,2,-99,-99,NA,NA,0,1,-99,-99
"1818","port","cinema",22,2,-99,-99,NA,NA,1,1,-99,-99
"1818","smother","surgery",23,2,-99,-99,NA,NA,0,1,-99,-99
"1818","forest","knob",24,2,-99,-99,NA,NA,1,0,-99,-99
"1818","bullet","walkway",25,2,-99,-99,NA,NA,0,0,-99,-99
"1818","glue","force",26,2,-99,-99,NA,NA,0,1,-99,-99
"1818","need","faucet",27,2,-99,-99,NA,NA,1,0,-99,-99
"1818","prison","loaf",28,2,-99,-99,NA,NA,1,1,-99,-99
"1818","biology","temper",29,2,-99,-99,NA,NA,0,0,-99,-99
"1818","find","clown",30,2,-99,-99,NA,NA,1,1,-99,-99
"1818","banner","glide",31,2,-99,-99,NA,NA,0,1,-99,-99
"1818","capital","figure",32,2,-99,-99,NA,NA,0,0,-99,-99
"1818","anger","decay",33,2,-99,-99,NA,NA,0,0,-99,-99
"1818","pea","bathtub",34,2,-99,-99,NA,NA,0,0,-99,-99
"1818","remind","foam",35,2,-99,-99,NA,NA,0,1,-99,-99
"1818","copy","bedroom",36,2,-99,-99,NA,NA,1,0,-99,-99
"1818","visit","glove",37,2,-99,-99,NA,NA,0,1,-99,-99
"1818","collect","loyalty",38,2,-99,-99,NA,NA,0,0,-99,-99
"1818","chicken","beet",39,2,-99,-99,NA,NA,1,1,-99,-99
"1818","date","laugh",40,2,-99,-99,NA,NA,1,0,-99,-99
"1818","bleach","ruin",1,3,1,7.18,1,0.025,1,0,0,11.604
"1818","nerve","bumper",2,3,9,5.079,24,0.6,0,1,0,8.453
"1818","want","ascent",3,3,6,3.437,21,0.525,0,1,0,0.776
"1818","caring","skirt",4,3,1,3.824,2,0.05,1,0,0,0.902
"1818","climax","saucer",5,3,39,6.516,33,0.825,0,0,1,0.664
"1818","date","laugh",6,3,1,4.326,3,0.075,1,0,0,0.89
"1818","glue","force",7,3,8,2.469,23,0.575,0,1,0,0.794
"1818","biology","temper",8,3,69,3.477,36,0.9,0,0,1,0.767
"1818","smother","surgery",9,3,33,3.051,32,0.8,0,1,0,0.557
"1818","banner","glide",10,3,7,3.789,22,0.55,0,1,0,0.89
"1818","fan","feature",11,3,1,2.062,4,0.1,1,0,0,0.817
"1818","risk","zero",12,3,100,2.564,38,0.95,0,0,1,0.671
"1818","grip","beach",13,3,1,5.03,5,0.125,1,0,0,0.483
"1818","remind","foam",14,3,25,3.881,30,0.75,0,1,0,0.675
"1818","copy","bedroom",15,3,1,2.575,6,0.15,1,0,0,0.97
"1818","calf","annoy",16,3,12,2.658,25,0.625,0,1,0,0.721
"1818","pea","bathtub",17,3,79,3.461,37,0.925,0,0,1,0.467
"1818","forest","knob",18,3,1,2.489,7,0.175,1,0,0,0.591
"1818","shrink","mafia",19,3,23,2.314,29,0.725,0,1,0,0.717
"1818","fee","chowder",20,3,1,2.989,8,0.2,1,0,0,0.636
"1818","bullet","walkway",21,3,57,3.101,34,0.85,0,0,1,0.783
"1818","replace","roach",22,3,17,3.023,27,0.675,0,1,0,0.749
"1818","capital","figure",23,3,59,6.744,35,0.875,0,0,1,0.678
"1818","rock","milk",24,3,1,2.079,9,0.225,1,0,0,0.71
"1818","need","faucet",25,3,1,2.921,10,0.25,1,0,0,0.865
"1818","visit","glove",26,3,1,2.705,11,0.275,0,1,0,0.581
"1818","chicken","beet",27,3,1,1.961,12,0.3,1,1,1,1.308
"1818","bias","sirloin",28,3,1,2.1,13,0.325,1,1,1,0.621
"1818","bacon","feud",29,3,1,1.923,14,0.35,1,1,1,1.004
"1818","process","joker",30,3,1,1.968,15,0.375,1,1,1,0.561
"1818","collect","loyalty",31,3,100,4.938,39,0.975,0,0,1,0.582
"1818","knock","otter",32,3,1,1.855,16,0.4,1,1,1,0.524
"1818","plant","worm",33,3,18,1.978,28,0.7,0,0,1,0.533
"1818","port","cinema",34,3,1,1.773,17,0.425,1,1,1,0.634
"1818","prison","loaf",35,3,14,1.981,26,0.65,1,1,1,0.526
"1818","pork","emperor",36,3,29,2.05,31,0.775,0,0,1,0.643
"1818","find","clown",37,3,1,1.878,18,0.45,1,1,1,0.685
"1818","anger","decay",38,3,100,2.069,40,1,0,0,1,0.626
"1818","link","crisis",39,3,1,1.887,19,0.475,1,1,1,0.554
"1818","mill","feast",40,3,1,4.96,20,0.5,1,1,1,0.588
"2026","shrink","mafia",1,1,-99,-99,NA,NA,1,1,-99,-99
"2026","visit","glove",2,1,-99,-99,NA,NA,1,1,-99,-99
"2026","date","laugh",3,1,-99,-99,NA,NA,1,0,-99,-99
"2026","biology","temper",4,1,-99,-99,NA,NA,0,1,-99,-99
"2026","plant","worm",5,1,-99,-99,NA,NA,1,0,-99,-99
"2026","copy","bedroom",6,1,-99,-99,NA,NA,1,1,-99,-99
"2026","calf","annoy",7,1,-99,-99,NA,NA,0,1,-99,-99
"2026","climax","saucer",8,1,-99,-99,NA,NA,0,1,-99,-99
"2026","chicken","beet",9,1,-99,-99,NA,NA,0,0,-99,-99
"2026","remind","foam",10,1,-99,-99,NA,NA,0,0,-99,-99
"2026","pork","emperor",11,1,-99,-99,NA,NA,0,0,-99,-99
"2026","smother","surgery",12,1,-99,-99,NA,NA,1,0,-99,-99
"2026","rock","milk",13,1,-99,-99,NA,NA,1,1,-99,-99
"2026","replace","roach",14,1,-99,-99,NA,NA,1,0,-99,-99
"2026","link","crisis",15,1,-99,-99,NA,NA,0,1,-99,-99
"2026","mill","feast",16,1,-99,-99,NA,NA,1,1,-99,-99
"2026","collect","loyalty",17,1,-99,-99,NA,NA,1,0,-99,-99
"2026","risk","zero",18,1,-99,-99,NA,NA,0,0,-99,-99
"2026","pea","bathtub",19,1,-99,-99,NA,NA,1,1,-99,-99
"2026","glue","force",20,1,-99,-99,NA,NA,0,1,-99,-99
"2026","banner","glide",21,1,-99,-99,NA,NA,0,1,-99,-99
"2026","capital","figure",22,1,-99,-99,NA,NA,0,1,-99,-99
"2026","bias","sirloin",23,1,-99,-99,NA,NA,0,1,-99,-99
"2026","port","cinema",24,1,-99,-99,NA,NA,0,0,-99,-99
"2026","need","faucet",25,1,-99,-99,NA,NA,0,0,-99,-99
"2026","caring","skirt",26,1,-99,-99,NA,NA,0,1,-99,-99
"2026","want","ascent",27,1,-99,-99,NA,NA,0,0,-99,-99
"2026","prison","loaf",28,1,-99,-99,NA,NA,0,0,-99,-99
"2026","bullet","walkway",29,1,-99,-99,NA,NA,0,1,-99,-99
"2026","fan","feature",30,1,-99,-99,NA,NA,1,0,-99,-99
"2026","process","joker",31,1,-99,-99,NA,NA,1,0,-99,-99
"2026","bleach","ruin",32,1,-99,-99,NA,NA,1,1,-99,-99
"2026","fee","chowder",33,1,-99,-99,NA,NA,0,0,-99,-99
"2026","grip","beach",34,1,-99,-99,NA,NA,1,1,-99,-99
"2026","forest","knob",35,1,-99,-99,NA,NA,1,0,-99,-99
"2026","find","clown",36,1,-99,-99,NA,NA,1,1,-99,-99
"2026","knock","otter",37,1,-99,-99,NA,NA,1,1,-99,-99
"2026","nerve","bumper",38,1,-99,-99,NA,NA,1,0,-99,-99
"2026","anger","decay",39,1,-99,-99,NA,NA,0,0,-99,-99
"2026","bacon","feud",40,1,-99,-99,NA,NA,1,0,-99,-99
"2026","mill","feast",1,2,-99,-99,NA,NA,1,1,-99,-99
"2026","plant","worm",2,2,-99,-99,NA,NA,1,0,-99,-99
"2026","glue","force",3,2,-99,-99,NA,NA,0,1,-99,-99
"2026","visit","glove",4,2,-99,-99,NA,NA,1,1,-99,-99
"2026","nerve","bumper",5,2,-99,-99,NA,NA,1,0,-99,-99
"2026","risk","zero",6,2,-99,-99,NA,NA,0,0,-99,-99
"2026","bullet","walkway",7,2,-99,-99,NA,NA,0,1,-99,-99
"2026","date","laugh",8,2,-99,-99,NA,NA,1,0,-99,-99
"2026","bias","sirloin",9,2,-99,-99,NA,NA,0,1,-99,-99
"2026","prison","loaf",10,2,-99,-99,NA,NA,0,0,-99,-99
"2026","process","joker",11,2,-99,-99,NA,NA,1,0,-99,-99
"2026","collect","loyalty",12,2,-99,-99,NA,NA,1,0,-99,-99
"2026","capital","figure",13,2,-99,-99,NA,NA,0,1,-99,-99
"2026","shrink","mafia",14,2,-99,-99,NA,NA,1,1,-99,-99
"2026","anger","decay",15,2,-99,-99,NA,NA,0,0,-99,-99
"2026","knock","otter",16,2,-99,-99,NA,NA,1,1,-99,-99
"2026","fee","chowder",17,2,-99,-99,NA,NA,0,0,-99,-99
"2026","find","clown",18,2,-99,-99,NA,NA,1,1,-99,-99
"2026","bleach","ruin",19,2,-99,-99,NA,NA,1,1,-99,-99
"2026","climax","saucer",20,2,-99,-99,NA,NA,0,1,-99,-99
"2026","chicken","beet",21,2,-99,-99,NA,NA,0,0,-99,-99
"2026","bacon","feud",22,2,-99,-99,NA,NA,1,0,-99,-99
"2026","fan","feature",23,2,-99,-99,NA,NA,1,0,-99,-99
"2026","copy","bedroom",24,2,-99,-99,NA,NA,1,1,-99,-99
"2026","calf","annoy",25,2,-99,-99,NA,NA,0,1,-99,-99
"2026","link","crisis",26,2,-99,-99,NA,NA,0,1,-99,-99
"2026","pork","emperor",27,2,-99,-99,NA,NA,0,0,-99,-99
"2026","port","cinema",28,2,-99,-99,NA,NA,0,0,-99,-99
"2026","remind","foam",29,2,-99,-99,NA,NA,0,0,-99,-99
"2026","rock","milk",30,2,-99,-99,NA,NA,1,1,-99,-99
"2026","grip","beach",31,2,-99,-99,NA,NA,1,1,-99,-99
"2026","want","ascent",32,2,-99,-99,NA,NA,0,0,-99,-99
"2026","pea","bathtub",33,2,-99,-99,NA,NA,1,1,-99,-99
"2026","need","faucet",34,2,-99,-99,NA,NA,0,0,-99,-99
"2026","biology","temper",35,2,-99,-99,NA,NA,0,1,-99,-99
"2026","forest","knob",36,2,-99,-99,NA,NA,1,0,-99,-99
"2026","smother","surgery",37,2,-99,-99,NA,NA,1,0,-99,-99
"2026","replace","roach",38,2,-99,-99,NA,NA,1,0,-99,-99
"2026","caring","skirt",39,2,-99,-99,NA,NA,0,1,-99,-99
"2026","banner","glide",40,2,-99,-99,NA,NA,0,1,-99,-99
"2026","risk","zero",1,3,85,12.363,25,0.625,0,0,1,11.763
"2026","find","clown",2,3,81,5.784,15,0.375,1,1,1,2.877
"2026","fee","chowder",3,3,86,3.939,29,0.725,0,0,1,1.955
"2026","pork","emperor",4,3,85,4.991,26,0.65,0,0,1,1.479
"2026","grip","beach",5,3,84,3.33,23,0.575,1,1,1,1.531
"2026","need","faucet",6,3,86,4.052,30,0.75,0,0,1,2.197
"2026","want","ascent",7,3,95,4.362,37,0.925,0,0,1,1.901
"2026","knock","otter",8,3,61,3.929,1,0.025,1,1,1,1.843
"2026","anger","decay",9,3,88,4.281,32,0.8,0,0,1,1.93
"2026","mill","feast",10,3,61,3.109,2,0.05,1,1,1,1.953
"2026","visit","glove",11,3,83,3.029,22,0.55,1,1,1,1.425
"2026","prison","loaf",12,3,86,2.922,31,0.775,0,0,1,1.411
"2026","pea","bathtub",13,3,76,2.474,10,0.25,1,1,1,1.496
"2026","port","cinema",14,3,92,3.204,36,0.9,0,0,1,1.855
"2026","rock","milk",15,3,71,2.975,3,0.075,1,1,1,1.269
"2026","chicken","beet",16,3,84,3.557,24,0.6,0,0,1,1.508
"2026","remind","foam",17,3,97,3.592,39,0.975,0,0,1,1.21
"2026","copy","bedroom",18,3,81,2.947,16,0.4,1,1,1,1.39
"2026","shrink","mafia",19,3,73,2.597,6,0.15,1,1,1,1.818
"2026","bleach","ruin",20,3,81,2.61,17,0.425,1,1,1,1.513
"2026","banner","glide",21,3,85,2.737,27,0.675,0,1,0,12.786
"2026","fan","feature",22,3,73,7.163,7,0.175,1,0,0,2.539
"2026","bacon","feud",23,3,77,5.582,11,0.275,1,0,0,3.539
"2026","forest","knob",24,3,81,8.263,18,0.45,1,0,0,2.094
"2026","bullet","walkway",25,3,91,3.657,34,0.85,0,1,0,1.357
"2026","date","laugh",26,3,78,3.236,12,0.3,1,0,0,1.461
"2026","calf","annoy",27,3,81,2.743,19,0.475,0,1,0,1.286
"2026","collect","loyalty",28,3,75,3.275,8,0.2,1,0,0,1.355
"2026","caring","skirt",29,3,91,4.208,35,0.875,0,1,0,1.286
"2026","replace","roach",30,3,71,2.82,4,0.1,1,0,0,1.936
"2026","glue","force",31,3,95,3.662,38,0.95,0,1,0,1.35
"2026","plant","worm",32,3,78,2.688,13,0.325,1,0,0,1.221
"2026","smother","surgery",33,3,80,2.53,14,0.35,1,0,0,1.175
"2026","bias","sirloin",34,3,99,3.395,40,1,0,1,0,1.33
"2026","climax","saucer",35,3,81,2.516,20,0.5,0,1,0,0.989
"2026","capital","figure",36,3,85,2.863,28,0.7,0,1,0,1.389
"2026","link","crisis",37,3,89,4.487,33,0.825,0,1,0,1.766
"2026","biology","temper",38,3,81,2.768,21,0.525,0,1,0,1.468
"2026","nerve","bumper",39,3,71,3.047,5,0.125,1,0,0,1.574
"2026","process","joker",40,3,75,2.896,9,0.225,1,0,0,1.133
"2163","risk","zero",1,1,-99,-99,NA,NA,0,1,-99,-99
"2163","copy","bedroom",2,1,-99,-99,NA,NA,1,1,-99,-99
"2163","bleach","ruin",3,1,-99,-99,NA,NA,1,1,-99,-99
"2163","forest","knob",4,1,-99,-99,NA,NA,1,1,-99,-99
"2163","date","laugh",5,1,-99,-99,NA,NA,1,1,-99,-99
"2163","grip","beach",6,1,-99,-99,NA,NA,0,0,-99,-99
"2163","collect","loyalty",7,1,-99,-99,NA,NA,0,1,-99,-99
"2163","pork","emperor",8,1,-99,-99,NA,NA,1,0,-99,-99
"2163","nerve","bumper",9,1,-99,-99,NA,NA,0,0,-99,-99
"2163","process","joker",10,1,-99,-99,NA,NA,1,0,-99,-99
"2163","knock","otter",11,1,-99,-99,NA,NA,0,0,-99,-99
"2163","capital","figure",12,1,-99,-99,NA,NA,1,0,-99,-99
"2163","anger","decay",13,1,-99,-99,NA,NA,1,0,-99,-99
"2163","pea","bathtub",14,1,-99,-99,NA,NA,0,0,-99,-99
"2163","visit","glove",15,1,-99,-99,NA,NA,0,0,-99,-99
"2163","bacon","feud",16,1,-99,-99,NA,NA,1,0,-99,-99
"2163","fan","feature",17,1,-99,-99,NA,NA,0,1,-99,-99
"2163","biology","temper",18,1,-99,-99,NA,NA,0,0,-99,-99
"2163","glue","force",19,1,-99,-99,NA,NA,0,0,-99,-99
"2163","bullet","walkway",20,1,-99,-99,NA,NA,0,1,-99,-99
"2163","bias","sirloin",21,1,-99,-99,NA,NA,0,1,-99,-99
"2163","caring","skirt",22,1,-99,-99,NA,NA,0,0,-99,-99
"2163","replace","roach",23,1,-99,-99,NA,NA,1,1,-99,-99
"2163","climax","saucer",24,1,-99,-99,NA,NA,1,1,-99,-99
"2163","plant","worm",25,1,-99,-99,NA,NA,1,0,-99,-99
"2163","rock","milk",26,1,-99,-99,NA,NA,0,0,-99,-99
"2163","smother","surgery",27,1,-99,-99,NA,NA,1,0,-99,-99
"2163","link","crisis",28,1,-99,-99,NA,NA,1,1,-99,-99
"2163","need","faucet",29,1,-99,-99,NA,NA,1,0,-99,-99
"2163","port","cinema",30,1,-99,-99,NA,NA,1,1,-99,-99
"2163","fee","chowder",31,1,-99,-99,NA,NA,0,0,-99,-99
"2163","banner","glide",32,1,-99,-99,NA,NA,0,1,-99,-99
"2163","prison","loaf",33,1,-99,-99,NA,NA,1,1,-99,-99
"2163","remind","foam",34,1,-99,-99,NA,NA,0,1,-99,-99
"2163","want","ascent",35,1,-99,-99,NA,NA,0,1,-99,-99
"2163","mill","feast",36,1,-99,-99,NA,NA,0,1,-99,-99
"2163","shrink","mafia",37,1,-99,-99,NA,NA,1,1,-99,-99
"2163","find","clown",38,1,-99,-99,NA,NA,0,1,-99,-99
"2163","calf","annoy",39,1,-99,-99,NA,NA,1,0,-99,-99
"2163","chicken","beet",40,1,-99,-99,NA,NA,1,0,-99,-99
"2163","pork","emperor",1,2,-99,-99,NA,NA,1,0,-99,-99
"2163","bullet","walkway",2,2,-99,-99,NA,NA,0,1,-99,-99
"2163","process","joker",3,2,-99,-99,NA,NA,1,0,-99,-99
"2163","port","cinema",4,2,-99,-99,NA,NA,1,1,-99,-99
"2163","bacon","feud",5,2,-99,-99,NA,NA,1,0,-99,-99
"2163","risk","zero",6,2,-99,-99,NA,NA,0,1,-99,-99
"2163","nerve","bumper",7,2,-99,-99,NA,NA,0,0,-99,-99
"2163","copy","bedroom",8,2,-99,-99,NA,NA,1,1,-99,-99
"2163","grip","beach",9,2,-99,-99,NA,NA,0,0,-99,-99
"2163","plant","worm",10,2,-99,-99,NA,NA,1,0,-99,-99
"2163","calf","annoy",11,2,-99,-99,NA,NA,1,0,-99,-99
"2163","rock","milk",12,2,-99,-99,NA,NA,0,0,-99,-99
"2163","fee","chowder",13,2,-99,-99,NA,NA,0,0,-99,-99
"2163","remind","foam",14,2,-99,-99,NA,NA,0,1,-99,-99
"2163","anger","decay",15,2,-99,-99,NA,NA,1,0,-99,-99
"2163","date","laugh",16,2,-99,-99,NA,NA,1,1,-99,-99
"2163","find","clown",17,2,-99,-99,NA,NA,0,1,-99,-99
"2163","shrink","mafia",18,2,-99,-99,NA,NA,1,1,-99,-99
"2163","mill","feast",19,2,-99,-99,NA,NA,0,1,-99,-99
"2163","bleach","ruin",20,2,-99,-99,NA,NA,1,1,-99,-99
"2163","prison","loaf",21,2,-99,-99,NA,NA,1,1,-99,-99
"2163","caring","skirt",22,2,-99,-99,NA,NA,0,0,-99,-99
"2163","chicken","beet",23,2,-99,-99,NA,NA,1,0,-99,-99
"2163","collect","loyalty",24,2,-99,-99,NA,NA,0,1,-99,-99
"2163","pea","bathtub",25,2,-99,-99,NA,NA,0,0,-99,-99
"2163","glue","force",26,2,-99,-99,NA,NA,0,0,-99,-99
"2163","smother","surgery",27,2,-99,-99,NA,NA,1,0,-99,-99
"2163","banner","glide",28,2,-99,-99,NA,NA,0,1,-99,-99
"2163","replace","roach",29,2,-99,-99,NA,NA,1,1,-99,-99
"2163","visit","glove",30,2,-99,-99,NA,NA,0,0,-99,-99
"2163","fan","feature",31,2,-99,-99,NA,NA,0,1,-99,-99
"2163","knock","otter",32,2,-99,-99,NA,NA,0,0,-99,-99
"2163","capital","figure",33,2,-99,-99,NA,NA,1,0,-99,-99
"2163","need","faucet",34,2,-99,-99,NA,NA,1,0,-99,-99
"2163","forest","knob",35,2,-99,-99,NA,NA,1,1,-99,-99
"2163","link","crisis",36,2,-99,-99,NA,NA,1,1,-99,-99
"2163","want","ascent",37,2,-99,-99,NA,NA,0,1,-99,-99
"2163","biology","temper",38,2,-99,-99,NA,NA,0,0,-99,-99
"2163","climax","saucer",39,2,-99,-99,NA,NA,1,1,-99,-99
"2163","bias","sirloin",40,2,-99,-99,NA,NA,0,1,-99,-99
"2163","anger","decay",1,3,57,14.07,31,0.775,1,0,0,13.862
"2163","plant","worm",2,3,34,5.502,19,0.475,1,0,0,1.115
"2163","calf","annoy",3,3,36,2.555,22,0.55,1,0,0,5.695
"2163","process","joker",4,3,40,2.423,26,0.65,1,0,0,1.695
"2163","bleach","ruin",5,3,65,3.115,35,0.875,1,1,1,2.367
"2163","capital","figure",6,3,38,4.511,25,0.625,1,0,0,2.951
"2163","bullet","walkway",7,3,16,4.671,1,0.025,0,1,0,0.911
"2163","prison","loaf",8,3,69,3.774,36,0.9,1,1,1,0.952
"2163","fee","chowder",9,3,34,2.759,20,0.5,0,0,1,2.703
"2163","copy","bedroom",10,3,75,4.538,39,0.975,1,1,1,1.911
"2163","chicken","beet",11,3,28,36.95,14,0.35,1,0,0,1.139
"2163","find","clown",12,3,21,2.635,3,0.075,0,1,0,1.08
"2163","want","ascent",13,3,17,2.102,2,0.05,0,1,0,1.178
"2163","link","crisis",14,3,73,3.011,38,0.95,1,1,1,2.295
"2163","smother","surgery",15,3,61,2.902,32,0.8,1,0,0,1.159
"2163","need","faucet",16,3,28,2.131,15,0.375,1,0,0,1.271
"2163","pork","emperor",17,3,36,2.483,23,0.575,1,0,0,1.583
"2163","risk","zero",18,3,21,1.895,4,0.1,0,1,0,1.371
"2163","banner","glide",19,3,25,2.342,10,0.25,0,1,0,1.051
"2163","remind","foam",20,3,23,2.431,5,0.125,0,1,0,1.799
"2163","mill","feast",21,3,26,2.319,11,0.275,0,1,0,1.471
"2163","collect","loyalty",22,3,23,2.315,6,0.15,0,1,0,1.051
"2163","fan","feature",23,3,24,2.359,7,0.175,0,1,0,1.171
"2163","bias","sirloin",24,3,24,2.075,8,0.2,0,1,0,1.027
"2163","bacon","feud",25,3,28,4.323,16,0.4,1,0,0,1.087
"2163","knock","otter",26,3,32,2.555,18,0.45,0,0,1,2.467
"2163","forest","knob",27,3,62,2.675,33,0.825,1,1,1,1.527
"2163","pea","bathtub",28,3,36,2.395,24,0.6,0,0,1,1.931
"2163","biology","temper",29,3,28,2.823,17,0.425,0,0,1,1.015
"2163","grip","beach",30,3,34,2.223,21,0.525,0,0,1,0.971
"2163","glue","force",31,3,27,1.839,13,0.325,0,0,1,0.863
"2163","rock","milk",32,3,26,1.927,12,0.3,0,0,1,0.871
"2163","climax","saucer",33,3,72,3.659,37,0.925,1,1,1,1.035
"2163","port","cinema",34,3,44,2.455,30,0.75,1,1,1,0.971
"2163","shrink","mafia",35,3,63,1.859,34,0.85,1,1,1,0.843
"2163","caring","skirt",36,3,40,2.339,27,0.675,0,0,1,1.767
"2163","replace","roach",37,3,41,1.695,29,0.725,1,1,1,2.795
"2163","visit","glove",38,3,40,2.295,28,0.7,0,0,1,1.107
"2163","nerve","bumper",39,3,24,1.863,9,0.225,0,0,1,1.079
"2163","date","laugh",40,3,78,3.611,40,1,1,1,1,1.367
"2237","climax","saucer",1,1,-99,-99,NA,NA,1,1,-99,-99
"2237","nerve","bumper",2,1,-99,-99,NA,NA,0,0,-99,-99
"2237","process","joker",3,1,-99,-99,NA,NA,0,0,-99,-99
"2237","chicken","beet",4,1,-99,-99,NA,NA,1,1,-99,-99
"2237","collect","loyalty",5,1,-99,-99,NA,NA,0,0,-99,-99
"2237","prison","loaf",6,1,-99,-99,NA,NA,0,0,-99,-99
"2237","shrink","mafia",7,1,-99,-99,NA,NA,1,0,-99,-99
"2237","bias","sirloin",8,1,-99,-99,NA,NA,0,0,-99,-99
"2237","date","laugh",9,1,-99,-99,NA,NA,1,0,-99,-99
"2237","visit","glove",10,1,-99,-99,NA,NA,0,1,-99,-99
"2237","copy","bedroom",11,1,-99,-99,NA,NA,0,1,-99,-99
"2237","bacon","feud",12,1,-99,-99,NA,NA,1,0,-99,-99
"2237","risk","zero",13,1,-99,-99,NA,NA,0,0,-99,-99
"2237","pea","bathtub",14,1,-99,-99,NA,NA,1,1,-99,-99
"2237","caring","skirt",15,1,-99,-99,NA,NA,0,1,-99,-99
"2237","calf","annoy",16,1,-99,-99,NA,NA,1,1,-99,-99
"2237","want","ascent",17,1,-99,-99,NA,NA,0,1,-99,-99
"2237","replace","roach",18,1,-99,-99,NA,NA,1,0,-99,-99
"2237","forest","knob",19,1,-99,-99,NA,NA,1,0,-99,-99
"2237","grip","beach",20,1,-99,-99,NA,NA,0,1,-99,-99
"2237","knock","otter",21,1,-99,-99,NA,NA,0,0,-99,-99
"2237","port","cinema",22,1,-99,-99,NA,NA,1,1,-99,-99
"2237","rock","milk",23,1,-99,-99,NA,NA,1,1,-99,-99
"2237","need","faucet",24,1,-99,-99,NA,NA,0,1,-99,-99
"2237","remind","foam",25,1,-99,-99,NA,NA,1,1,-99,-99
"2237","link","crisis",26,1,-99,-99,NA,NA,1,0,-99,-99
"2237","biology","temper",27,1,-99,-99,NA,NA,0,1,-99,-99
"2237","fee","chowder",28,1,-99,-99,NA,NA,0,1,-99,-99
"2237","banner","glide",29,1,-99,-99,NA,NA,0,0,-99,-99
"2237","glue","force",30,1,-99,-99,NA,NA,1,0,-99,-99
"2237","fan","feature",31,1,-99,-99,NA,NA,0,1,-99,-99
"2237","bleach","ruin",32,1,-99,-99,NA,NA,1,1,-99,-99
"2237","anger","decay",33,1,-99,-99,NA,NA,1,0,-99,-99
"2237","capital","figure",34,1,-99,-99,NA,NA,1,0,-99,-99
"2237","plant","worm",35,1,-99,-99,NA,NA,0,0,-99,-99
"2237","bullet","walkway",36,1,-99,-99,NA,NA,1,1,-99,-99
"2237","mill","feast",37,1,-99,-99,NA,NA,1,0,-99,-99
"2237","find","clown",38,1,-99,-99,NA,NA,0,0,-99,-99
"2237","smother","surgery",39,1,-99,-99,NA,NA,0,1,-99,-99
"2237","pork","emperor",40,1,-99,-99,NA,NA,1,1,-99,-99
"2237","knock","otter",1,2,-99,-99,NA,NA,0,0,-99,-99
"2237","replace","roach",2,2,-99,-99,NA,NA,1,0,-99,-99
"2237","shrink","mafia",3,2,-99,-99,NA,NA,1,0,-99,-99
"2237","bullet","walkway",4,2,-99,-99,NA,NA,1,1,-99,-99
"2237","find","clown",5,2,-99,-99,NA,NA,0,0,-99,-99
"2237","plant","worm",6,2,-99,-99,NA,NA,0,0,-99,-99
"2237","grip","beach",7,2,-99,-99,NA,NA,0,1,-99,-99
"2237","calf","annoy",8,2,-99,-99,NA,NA,1,1,-99,-99
"2237","mill","feast",9,2,-99,-99,NA,NA,1,0,-99,-99
"2237","climax","saucer",10,2,-99,-99,NA,NA,1,1,-99,-99
"2237","prison","loaf",11,2,-99,-99,NA,NA,0,0,-99,-99
"2237","bacon","feud",12,2,-99,-99,NA,NA,1,0,-99,-99
"2237","link","crisis",13,2,-99,-99,NA,NA,1,0,-99,-99
"2237","capital","figure",14,2,-99,-99,NA,NA,1,0,-99,-99
"2237","bleach","ruin",15,2,-99,-99,NA,NA,1,1,-99,-99
"2237","anger","decay",16,2,-99,-99,NA,NA,1,0,-99,-99
"2237","nerve","bumper",17,2,-99,-99,NA,NA,0,0,-99,-99
"2237","rock","milk",18,2,-99,-99,NA,NA,1,1,-99,-99
"2237","chicken","beet",19,2,-99,-99,NA,NA,1,1,-99,-99
"2237","pea","bathtub",20,2,-99,-99,NA,NA,1,1,-99,-99
"2237","caring","skirt",21,2,-99,-99,NA,NA,0,1,-99,-99
"2237","collect","loyalty",22,2,-99,-99,NA,NA,0,0,-99,-99
"2237","fan","feature",23,2,-99,-99,NA,NA,0,1,-99,-99
"2237","bias","sirloin",24,2,-99,-99,NA,NA,0,0,-99,-99
"2237","remind","foam",25,2,-99,-99,NA,NA,1,1,-99,-99
"2237","fee","chowder",26,2,-99,-99,NA,NA,0,1,-99,-99
"2237","biology","temper",27,2,-99,-99,NA,NA,0,1,-99,-99
"2237","pork","emperor",28,2,-99,-99,NA,NA,1,1,-99,-99
"2237","want","ascent",29,2,-99,-99,NA,NA,0,1,-99,-99
"2237","smother","surgery",30,2,-99,-99,NA,NA,0,1,-99,-99
"2237","date","laugh",31,2,-99,-99,NA,NA,1,0,-99,-99
"2237","glue","force",32,2,-99,-99,NA,NA,1,0,-99,-99
"2237","banner","glide",33,2,-99,-99,NA,NA,0,0,-99,-99
"2237","risk","zero",34,2,-99,-99,NA,NA,0,0,-99,-99
"2237","forest","knob",35,2,-99,-99,NA,NA,1,0,-99,-99
"2237","copy","bedroom",36,2,-99,-99,NA,NA,0,1,-99,-99
"2237","visit","glove",37,2,-99,-99,NA,NA,0,1,-99,-99
"2237","port","cinema",38,2,-99,-99,NA,NA,1,1,-99,-99
"2237","process","joker",39,2,-99,-99,NA,NA,0,0,-99,-99
"2237","need","faucet",40,2,-99,-99,NA,NA,0,1,-99,-99
"2237","climax","saucer",1,3,50,11.446,40,1,1,1,1,19.367
"2237","link","crisis",2,3,35,24.775,38,0.95,1,0,0,2.182
"2237","date","laugh",3,3,5,12.902,31,0.775,1,0,0,0.896
"2237","fan","feature",4,3,1,4.783,1,0.025,0,1,0,1.207
"2237","caring","skirt",5,3,1,5.102,2,0.05,0,1,0,1.342
"2237","fee","chowder",6,3,1,3.216,3,0.075,0,1,0,1.191
"2237","need","faucet",7,3,1,2.871,4,0.1,0,1,0,1.44
"2237","smother","surgery",8,3,1,5.76,5,0.125,0,1,0,1.119
"2237","grip","beach",9,3,1,4.96,6,0.15,0,1,0,1.439
"2237","port","cinema",10,3,20,8.136,35,0.875,1,1,1,2.199
"2237","visit","glove",11,3,1,3.528,7,0.175,0,1,0,0.776
"2237","pork","emperor",12,3,35,10.191,39,0.975,1,1,1,0.944
"2237","biology","temper",13,3,1,6.976,8,0.2,0,1,0,1.143
"2237","copy","bedroom",14,3,1,3.534,9,0.225,0,1,0,0.767
"2237","want","ascent",15,3,1,4.28,10,0.25,0,1,0,0.935
"2237","rock","milk",16,3,30,6.528,36,0.9,1,1,1,1.68
"2237","chicken","beet",17,3,10,15.454,32,0.8,1,1,1,0.967
"2237","shrink","mafia",18,3,1,2.911,11,0.275,1,0,0,0.696
"2237","capital","figure",19,3,1,5.679,12,0.3,1,0,0,1.087
"2237","anger","decay",20,3,1,2.871,13,0.325,1,0,0,1.159
"2237","pea","bathtub",21,3,30,11.176,37,0.925,1,1,1,0.832
"2237","bacon","feud",22,3,1,5.696,14,0.35,1,0,0,0.672
"2237","forest","knob",23,3,1,6.759,15,0.375,1,0,0,4.168
"2237","glue","force",24,3,1,6.983,16,0.4,1,0,0,1.046
"2237","bullet","walkway",25,3,10,11.072,33,0.825,1,1,1,1.104
"2237","replace","roach",26,3,1,3.648,17,0.425,1,0,0,1.04
"2237","mill","feast",27,3,1,2.863,18,0.45,1,0,0,0.992
"2237","banner","glide",28,3,1,4.96,19,0.475,0,0,1,1.536
"2237","process","joker",29,3,1,8.166,20,0.5,0,0,1,1.452
"2237","plant","worm",30,3,1,2.394,21,0.525,0,0,1,0.864
"2237","collect","loyalty",31,3,1,2.136,22,0.55,0,0,1,0.76
"2237","knock","otter",32,3,1,1.872,23,0.575,0,0,1,1.856
"2237","bleach","ruin",33,3,10,11.447,34,0.85,1,1,1,0.792
"2237","nerve","bumper",34,3,1,2.774,24,0.6,0,0,1,1.031
"2237","bias","sirloin",35,3,1,4.888,25,0.625,0,0,1,0.615
"2237","prison","loaf",36,3,1,3.207,26,0.65,0,0,1,0.887
"2237","find","clown",37,3,1,2.182,27,0.675,0,0,1,0.959
"2237","risk","zero",38,3,1,2.64,28,0.7,0,0,1,0.848
"2237","remind","foam",39,3,1,2.055,29,0.725,1,1,1,0.864
"2237","calf","annoy",40,3,1,7.04,30,0.75,1,1,1,0.847
"2341","want","ascent",1,1,-99,-99,NA,NA,0,1,-99,-99
"2341","smother","surgery",2,1,-99,-99,NA,NA,1,0,-99,-99
"2341","caring","skirt",3,1,-99,-99,NA,NA,1,1,-99,-99
"2341","capital","figure",4,1,-99,-99,NA,NA,1,1,-99,-99
"2341","calf","annoy",5,1,-99,-99,NA,NA,0,0,-99,-99
"2341","climax","saucer",6,1,-99,-99,NA,NA,0,0,-99,-99
"2341","process","joker",7,1,-99,-99,NA,NA,1,0,-99,-99
"2341","collect","loyalty",8,1,-99,-99,NA,NA,1,0,-99,-99
"2341","date","laugh",9,1,-99,-99,NA,NA,0,1,-99,-99
"2341","shrink","mafia",10,1,-99,-99,NA,NA,0,1,-99,-99
"2341","forest","knob",11,1,-99,-99,NA,NA,0,0,-99,-99
"2341","replace","roach",12,1,-99,-99,NA,NA,0,0,-99,-99
"2341","rock","milk",13,1,-99,-99,NA,NA,0,1,-99,-99
"2341","pea","bathtub",14,1,-99,-99,NA,NA,0,0,-99,-99
"2341","plant","worm",15,1,-99,-99,NA,NA,0,1,-99,-99
"2341","bacon","feud",16,1,-99,-99,NA,NA,1,0,-99,-99
"2341","glue","force",17,1,-99,-99,NA,NA,1,1,-99,-99
"2341","chicken","beet",18,1,-99,-99,NA,NA,0,0,-99,-99
"2341","fee","chowder",19,1,-99,-99,NA,NA,1,1,-99,-99
"2341","anger","decay",20,1,-99,-99,NA,NA,0,0,-99,-99
"2341","remind","foam",21,1,-99,-99,NA,NA,1,1,-99,-99
"2341","need","faucet",22,1,-99,-99,NA,NA,1,1,-99,-99
"2341","link","crisis",23,1,-99,-99,NA,NA,1,1,-99,-99
"2341","risk","zero",24,1,-99,-99,NA,NA,1,1,-99,-99
"2341","bullet","walkway",25,1,-99,-99,NA,NA,1,0,-99,-99
"2341","grip","beach",26,1,-99,-99,NA,NA,1,0,-99,-99
"2341","find","clown",27,1,-99,-99,NA,NA,1,0,-99,-99
"2341","pork","emperor",28,1,-99,-99,NA,NA,0,1,-99,-99
"2341","bias","sirloin",29,1,-99,-99,NA,NA,0,0,-99,-99
"2341","banner","glide",30,1,-99,-99,NA,NA,0,0,-99,-99
"2341","knock","otter",31,1,-99,-99,NA,NA,1,1,-99,-99
"2341","bleach","ruin",32,1,-99,-99,NA,NA,1,1,-99,-99
"2341","prison","loaf",33,1,-99,-99,NA,NA,0,1,-99,-99
"2341","copy","bedroom",34,1,-99,-99,NA,NA,0,1,-99,-99
"2341","mill","feast",35,1,-99,-99,NA,NA,0,1,-99,-99
"2341","nerve","bumper",36,1,-99,-99,NA,NA,1,0,-99,-99
"2341","visit","glove",37,1,-99,-99,NA,NA,1,0,-99,-99
"2341","biology","temper",38,1,-99,-99,NA,NA,1,0,-99,-99
"2341","fan","feature",39,1,-99,-99,NA,NA,0,1,-99,-99
"2341","port","cinema",40,1,-99,-99,NA,NA,0,0,-99,-99
"2341","remind","foam",1,2,-99,-99,NA,NA,1,1,-99,-99
"2341","need","faucet",2,2,-99,-99,NA,NA,1,1,-99,-99
"2341","fan","feature",3,2,-99,-99,NA,NA,0,1,-99,-99
"2341","knock","otter",4,2,-99,-99,NA,NA,1,1,-99,-99
"2341","caring","skirt",5,2,-99,-99,NA,NA,1,1,-99,-99
"2341","capital","figure",6,2,-99,-99,NA,NA,1,1,-99,-99
"2341","bias","sirloin",7,2,-99,-99,NA,NA,0,0,-99,-99
"2341","pork","emperor",8,2,-99,-99,NA,NA,0,1,-99,-99
"2341","plant","worm",9,2,-99,-99,NA,NA,0,1,-99,-99
"2341","biology","temper",10,2,-99,-99,NA,NA,1,0,-99,-99
"2341","want","ascent",11,2,-99,-99,NA,NA,0,1,-99,-99
"2341","find","clown",12,2,-99,-99,NA,NA,1,0,-99,-99
"2341","banner","glide",13,2,-99,-99,NA,NA,0,0,-99,-99
"2341","glue","force",14,2,-99,-99,NA,NA,1,1,-99,-99
"2341","risk","zero",15,2,-99,-99,NA,NA,1,1,-99,-99
"2341","shrink","mafia",16,2,-99,-99,NA,NA,0,1,-99,-99
"2341","fee","chowder",17,2,-99,-99,NA,NA,1,1,-99,-99
"2341","replace","roach",18,2,-99,-99,NA,NA,0,0,-99,-99
"2341","forest","knob",19,2,-99,-99,NA,NA,0,0,-99,-99
"2341","chicken","beet",20,2,-99,-99,NA,NA,0,0,-99,-99
"2341","climax","saucer",21,2,-99,-99,NA,NA,0,0,-99,-99
"2341","prison","loaf",22,2,-99,-99,NA,NA,0,1,-99,-99
"2341","bacon","feud",23,2,-99,-99,NA,NA,1,0,-99,-99
"2341","link","crisis",24,2,-99,-99,NA,NA,1,1,-99,-99
"2341","smother","surgery",25,2,-99,-99,NA,NA,1,0,-99,-99
"2341","date","laugh",26,2,-99,-99,NA,NA,0,1,-99,-99
"2341","bleach","ruin",27,2,-99,-99,NA,NA,1,1,-99,-99
"2341","nerve","bumper",28,2,-99,-99,NA,NA,1,0,-99,-99
"2341","port","cinema",29,2,-99,-99,NA,NA,0,0,-99,-99
"2341","grip","beach",30,2,-99,-99,NA,NA,1,0,-99,-99
"2341","bullet","walkway",31,2,-99,-99,NA,NA,1,0,-99,-99
"2341","copy","bedroom",32,2,-99,-99,NA,NA,0,1,-99,-99
"2341","mill","feast",33,2,-99,-99,NA,NA,0,1,-99,-99
"2341","collect","loyalty",34,2,-99,-99,NA,NA,1,0,-99,-99
"2341","pea","bathtub",35,2,-99,-99,NA,NA,0,0,-99,-99
"2341","anger","decay",36,2,-99,-99,NA,NA,0,0,-99,-99
"2341","visit","glove",37,2,-99,-99,NA,NA,1,0,-99,-99
"2341","rock","milk",38,2,-99,-99,NA,NA,0,1,-99,-99
"2341","process","joker",39,2,-99,-99,NA,NA,1,0,-99,-99
"2341","calf","annoy",40,2,-99,-99,NA,NA,0,0,-99,-99
"2341","replace","roach",1,3,7,3.539,1,0.025,0,0,1,6.741
"2341","anger","decay",2,3,18,2.878,3,0.075,0,0,1,0.817
"2341","bleach","ruin",3,3,32,1.327,25,0.625,1,1,1,0.601
"2341","knock","otter",4,3,57,1.515,40,1,1,1,1,0.533
"2341","link","crisis",5,3,35,1.075,31,0.775,1,1,1,3.775
"2341","climax","saucer",6,3,23,1.441,11,0.275,0,0,1,0.561
"2341","pea","bathtub",7,3,22,1.125,8,0.2,0,0,1,0.553
"2341","remind","foam",8,3,30,2.093,20,0.5,1,1,1,0.687
"2341","calf","annoy",9,3,19,0.967,4,0.1,0,0,1,0.576
"2341","banner","glide",10,3,22,1.175,9,0.225,0,0,1,0.679
"2341","port","cinema",11,3,16,1.346,2,0.05,0,0,1,0.477
"2341","chicken","beet",12,3,24,1.661,12,0.3,0,0,1,0.557
"2341","need","faucet",13,3,25,1.551,13,0.325,1,1,1,0.58
"2341","bias","sirloin",14,3,19,1.229,5,0.125,0,0,1,0.805
"2341","forest","knob",15,3,21,1.225,6,0.15,0,0,1,0.597
"2341","risk","zero",16,3,30,1.409,21,0.525,1,1,1,0.781
"2341","capital","figure",17,3,27,2.971,16,0.4,1,1,1,0.515
"2341","glue","force",18,3,32,1.418,26,0.65,1,1,1,0.559
"2341","fee","chowder",19,3,32,1.151,27,0.675,1,1,1,0.611
"2341","caring","skirt",20,3,35,1.719,32,0.8,1,1,1,0.465
"2341","smother","surgery",21,3,36,1.917,35,0.875,1,0,0,1.039
"2341","find","clown",22,3,35,1.963,33,0.825,1,0,0,0.961
"2341","nerve","bumper",23,3,45,1.269,39,0.975,1,0,0,0.554
"2341","biology","temper",24,3,41,1.171,38,0.95,1,0,0,0.545
"2341","bullet","walkway",25,3,34,1.195,30,0.75,1,0,0,0.599
"2341","process","joker",26,3,36,1.845,36,0.9,1,0,0,0.423
"2341","prison","loaf",27,3,30,1.239,22,0.55,0,1,0,0.556
"2341","grip","beach",28,3,33,1.465,29,0.725,1,0,0,0.489
"2341","fan","feature",29,3,25,1.524,14,0.35,0,1,0,0.497
"2341","bacon","feud",30,3,35,1.623,34,0.85,1,0,0,0.652
"2341","collect","loyalty",31,3,37,1.065,37,0.925,1,0,0,0.777
"2341","rock","milk",32,3,30,1.171,23,0.575,0,1,0,0.575
"2341","visit","glove",33,3,32,1.151,28,0.7,1,0,0,0.511
"2341","mill","feast",34,3,31,1.065,24,0.6,0,1,0,0.526
"2341","plant","worm",35,3,21,0.965,7,0.175,0,1,0,0.677
"2341","pork","emperor",36,3,26,0.927,15,0.375,0,1,0,0.535
"2341","date","laugh",37,3,22,1.493,10,0.25,0,1,0,0.647
"2341","shrink","mafia",38,3,28,1.039,18,0.45,0,1,0,0.463
"2341","copy","bedroom",39,3,29,0.817,19,0.475,0,1,0,0.529
"2341","want","ascent",40,3,27,1.033,17,0.425,0,1,0,0.493
"2495","need","faucet",1,1,-99,-99,NA,NA,0,1,-99,-99
"2495","link","crisis",2,1,-99,-99,NA,NA,1,0,-99,-99
"2495","pork","emperor",3,1,-99,-99,NA,NA,1,0,-99,-99
"2495","rock","milk",4,1,-99,-99,NA,NA,0,0,-99,-99
"2495","find","clown",5,1,-99,-99,NA,NA,1,1,-99,-99
"2495","shrink","mafia",6,1,-99,-99,NA,NA,0,0,-99,-99
"2495","banner","glide",7,1,-99,-99,NA,NA,1,0,-99,-99
"2495","port","cinema",8,1,-99,-99,NA,NA,0,0,-99,-99
"2495","capital","figure",9,1,-99,-99,NA,NA,1,0,-99,-99
"2495","biology","temper",10,1,-99,-99,NA,NA,0,0,-99,-99
"2495","chicken","beet",11,1,-99,-99,NA,NA,1,1,-99,-99
"2495","plant","worm",12,1,-99,-99,NA,NA,1,1,-99,-99
"2495","prison","loaf",13,1,-99,-99,NA,NA,1,1,-99,-99
"2495","knock","otter",14,1,-99,-99,NA,NA,0,1,-99,-99
"2495","bullet","walkway",15,1,-99,-99,NA,NA,1,1,-99,-99
"2495","fee","chowder",16,1,-99,-99,NA,NA,0,0,-99,-99
"2495","remind","foam",17,1,-99,-99,NA,NA,1,0,-99,-99
"2495","date","laugh",18,1,-99,-99,NA,NA,1,0,-99,-99
"2495","pea","bathtub",19,1,-99,-99,NA,NA,1,1,-99,-99
"2495","visit","glove",20,1,-99,-99,NA,NA,1,0,-99,-99
"2495","grip","beach",21,1,-99,-99,NA,NA,0,0,-99,-99
"2495","smother","surgery",22,1,-99,-99,NA,NA,1,1,-99,-99
"2495","process","joker",23,1,-99,-99,NA,NA,0,1,-99,-99
"2495","bacon","feud",24,1,-99,-99,NA,NA,1,0,-99,-99
"2495","glue","force",25,1,-99,-99,NA,NA,0,0,-99,-99
"2495","bias","sirloin",26,1,-99,-99,NA,NA,0,1,-99,-99
"2495","caring","skirt",27,1,-99,-99,NA,NA,0,1,-99,-99
"2495","replace","roach",28,1,-99,-99,NA,NA,0,1,-99,-99
"2495","forest","knob",29,1,-99,-99,NA,NA,1,0,-99,-99
"2495","calf","annoy",30,1,-99,-99,NA,NA,0,0,-99,-99
"2495","mill","feast",31,1,-99,-99,NA,NA,0,0,-99,-99
"2495","copy","bedroom",32,1,-99,-99,NA,NA,0,1,-99,-99
"2495","want","ascent",33,1,-99,-99,NA,NA,0,1,-99,-99
"2495","anger","decay",34,1,-99,-99,NA,NA,0,1,-99,-99
"2495","fan","feature",35,1,-99,-99,NA,NA,1,0,-99,-99
"2495","climax","saucer",36,1,-99,-99,NA,NA,0,0,-99,-99
"2495","bleach","ruin",37,1,-99,-99,NA,NA,1,1,-99,-99
"2495","nerve","bumper",38,1,-99,-99,NA,NA,0,1,-99,-99
"2495","collect","loyalty",39,1,-99,-99,NA,NA,1,1,-99,-99
"2495","risk","zero",40,1,-99,-99,NA,NA,1,1,-99,-99
"2495","nerve","bumper",1,2,-99,-99,NA,NA,0,1,-99,-99
"2495","fan","feature",2,2,-99,-99,NA,NA,1,0,-99,-99
"2495","risk","zero",3,2,-99,-99,NA,NA,1,1,-99,-99
"2495","need","faucet",4,2,-99,-99,NA,NA,0,1,-99,-99
"2495","mill","feast",5,2,-99,-99,NA,NA,0,0,-99,-99
"2495","bacon","feud",6,2,-99,-99,NA,NA,1,0,-99,-99
"2495","anger","decay",7,2,-99,-99,NA,NA,0,1,-99,-99
"2495","bullet","walkway",8,2,-99,-99,NA,NA,1,1,-99,-99
"2495","copy","bedroom",9,2,-99,-99,NA,NA,0,1,-99,-99
"2495","knock","otter",10,2,-99,-99,NA,NA,0,1,-99,-99
"2495","visit","glove",11,2,-99,-99,NA,NA,1,0,-99,-99
"2495","forest","knob",12,2,-99,-99,NA,NA,1,0,-99,-99
"2495","replace","roach",13,2,-99,-99,NA,NA,0,1,-99,-99
"2495","pea","bathtub",14,2,-99,-99,NA,NA,1,1,-99,-99
"2495","glue","force",15,2,-99,-99,NA,NA,0,0,-99,-99
"2495","caring","skirt",16,2,-99,-99,NA,NA,0,1,-99,-99
"2495","rock","milk",17,2,-99,-99,NA,NA,0,0,-99,-99
"2495","find","clown",18,2,-99,-99,NA,NA,1,1,-99,-99
"2495","biology","temper",19,2,-99,-99,NA,NA,0,0,-99,-99
"2495","port","cinema",20,2,-99,-99,NA,NA,0,0,-99,-99
"2495","fee","chowder",21,2,-99,-99,NA,NA,0,0,-99,-99
"2495","shrink","mafia",22,2,-99,-99,NA,NA,0,0,-99,-99
"2495","link","crisis",23,2,-99,-99,NA,NA,1,0,-99,-99
"2495","grip","beach",24,2,-99,-99,NA,NA,0,0,-99,-99
"2495","bias","sirloin",25,2,-99,-99,NA,NA,0,1,-99,-99
"2495","climax","saucer",26,2,-99,-99,NA,NA,0,0,-99,-99
"2495","smother","surgery",27,2,-99,-99,NA,NA,1,1,-99,-99
"2495","chicken","beet",28,2,-99,-99,NA,NA,1,1,-99,-99
"2495","plant","worm",29,2,-99,-99,NA,NA,1,1,-99,-99
"2495","collect","loyalty",30,2,-99,-99,NA,NA,1,1,-99,-99
"2495","date","laugh",31,2,-99,-99,NA,NA,1,0,-99,-99
"2495","prison","loaf",32,2,-99,-99,NA,NA,1,1,-99,-99
"2495","want","ascent",33,2,-99,-99,NA,NA,0,1,-99,-99
"2495","calf","annoy",34,2,-99,-99,NA,NA,0,0,-99,-99
"2495","capital","figure",35,2,-99,-99,NA,NA,1,0,-99,-99
"2495","bleach","ruin",36,2,-99,-99,NA,NA,1,1,-99,-99
"2495","process","joker",37,2,-99,-99,NA,NA,0,1,-99,-99
"2495","banner","glide",38,2,-99,-99,NA,NA,1,0,-99,-99
"2495","remind","foam",39,2,-99,-99,NA,NA,1,0,-99,-99
"2495","pork","emperor",40,2,-99,-99,NA,NA,1,0,-99,-99
"2495","bias","sirloin",1,3,2,11.484,1,0.025,0,1,0,11.986
"2495","biology","temper",2,3,35,9.279,16,0.4,0,0,1,3.355
"2495","replace","roach",3,3,10,9.558,5,0.125,0,1,0,1.474
"2495","copy","bedroom",4,3,12,8.799,8,0.2,0,1,0,0.957
"2495","collect","loyalty",5,3,75,7.981,33,0.825,1,1,1,0.801
"2495","nerve","bumper",6,3,11,5.773,6,0.15,0,1,0,1.027
"2495","mill","feast",7,3,38,5.633,19,0.475,0,0,1,0.849
"2495","want","ascent",8,3,7,9.62,3,0.075,0,1,0,1.217
"2495","chicken","beet",9,3,95,4.184,38,0.95,1,1,1,1.134
"2495","remind","foam",10,3,24,7.505,12,0.3,1,0,0,0.849
"2495","bleach","ruin",11,3,99,3.465,39,0.975,1,1,1,0.831
"2495","prison","loaf",12,3,90,5.519,37,0.925,1,1,1,10.938
"2495","visit","glove",13,3,38,9.585,20,0.5,1,0,0,2.151
"2495","process","joker",14,3,4,9.86,2,0.05,0,1,0,1.381
"2495","caring","skirt",15,3,11,6.526,7,0.175,0,1,0,0.879
"2495","smother","surgery",16,3,83,4.407,36,0.9,1,1,1,10.991
"2495","risk","zero",17,3,79,6.222,34,0.85,1,1,1,0.787
"2495","knock","otter",18,3,13,5.712,9,0.225,0,1,0,0.84
"2495","anger","decay",19,3,8,7.539,4,0.1,0,1,0,1.141
"2495","link","crisis",20,3,26,8.353,14,0.35,1,0,0,0.848
"2495","pork","emperor",21,3,37,8.579,18,0.45,1,0,0,1.158
"2495","fee","chowder",22,3,54,6.968,26,0.65,0,0,1,0.91
"2495","pea","bathtub",23,3,63,3.232,31,0.775,1,1,1,0.957
"2495","find","clown",24,3,79,6.02,35,0.875,1,1,1,0.825
"2495","port","cinema",25,3,59,4.067,29,0.725,0,0,1,0.842
"2495","glue","force",26,3,54,5.03,27,0.675,0,0,1,0.834
"2495","banner","glide",27,3,41,5.595,22,0.55,1,0,0,0.762
"2495","bacon","feud",28,3,32,9.35,15,0.375,1,0,0,1.041
"2495","bullet","walkway",29,3,72,4.452,32,0.8,1,1,1,1.219
"2495","grip","beach",30,3,55,4.353,28,0.7,0,0,1,0.817
"2495","fan","feature",31,3,41,7.489,23,0.575,1,0,0,1.174
"2495","forest","knob",32,3,25,8.839,13,0.325,1,0,0,0.767
"2495","capital","figure",33,3,39,6.159,21,0.525,1,0,0,0.979
"2495","climax","saucer",34,3,36,3.619,17,0.425,0,0,1,0.809
"2495","plant","worm",35,3,99,6.059,40,1,1,1,1,1.573
"2495","rock","milk",36,3,44,4.199,24,0.6,0,0,1,0.879
"2495","calf","annoy",37,3,61,7.082,30,0.75,0,0,1,0.887
"2495","shrink","mafia",38,3,53,4.579,25,0.625,0,0,1,1.018
"2495","need","faucet",39,3,15,7.285,10,0.25,0,1,0,1.057
"2495","date","laugh",40,3,20,4.799,11,0.275,1,0,0,0.779
"2503","grip","beach",1,1,-99,-99,NA,NA,1,1,-99,-99
"2503","chicken","beet",2,1,-99,-99,NA,NA,1,0,-99,-99
"2503","risk","zero",3,1,-99,-99,NA,NA,0,1,-99,-99
"2503","plant","worm",4,1,-99,-99,NA,NA,1,0,-99,-99
"2503","bleach","ruin",5,1,-99,-99,NA,NA,1,1,-99,-99
"2503","copy","bedroom",6,1,-99,-99,NA,NA,0,1,-99,-99
"2503","calf","annoy",7,1,-99,-99,NA,NA,0,0,-99,-99
"2503","replace","roach",8,1,-99,-99,NA,NA,1,0,-99,-99
"2503","pork","emperor",9,1,-99,-99,NA,NA,0,0,-99,-99
"2503","need","faucet",10,1,-99,-99,NA,NA,1,1,-99,-99
"2503","prison","loaf",11,1,-99,-99,NA,NA,0,1,-99,-99
"2503","date","laugh",12,1,-99,-99,NA,NA,1,1,-99,-99
"2503","shrink","mafia",13,1,-99,-99,NA,NA,0,0,-99,-99
"2503","bias","sirloin",14,1,-99,-99,NA,NA,0,1,-99,-99
"2503","banner","glide",15,1,-99,-99,NA,NA,0,1,-99,-99
"2503","climax","saucer",16,1,-99,-99,NA,NA,1,1,-99,-99
"2503","nerve","bumper",17,1,-99,-99,NA,NA,1,1,-99,-99
"2503","visit","glove",18,1,-99,-99,NA,NA,1,0,-99,-99
"2503","fee","chowder",19,1,-99,-99,NA,NA,1,1,-99,-99
"2503","bacon","feud",20,1,-99,-99,NA,NA,1,1,-99,-99
"2503","caring","skirt",21,1,-99,-99,NA,NA,1,0,-99,-99
"2503","glue","force",22,1,-99,-99,NA,NA,1,1,-99,-99
"2503","mill","feast",23,1,-99,-99,NA,NA,0,1,-99,-99
"2503","collect","loyalty",24,1,-99,-99,NA,NA,1,0,-99,-99
"2503","biology","temper",25,1,-99,-99,NA,NA,1,0,-99,-99
"2503","want","ascent",26,1,-99,-99,NA,NA,0,0,-99,-99
"2503","rock","milk",27,1,-99,-99,NA,NA,1,0,-99,-99
"2503","port","cinema",28,1,-99,-99,NA,NA,0,0,-99,-99
"2503","bullet","walkway",29,1,-99,-99,NA,NA,0,0,-99,-99
"2503","remind","foam",30,1,-99,-99,NA,NA,0,0,-99,-99
"2503","capital","figure",31,1,-99,-99,NA,NA,0,1,-99,-99
"2503","smother","surgery",32,1,-99,-99,NA,NA,0,0,-99,-99
"2503","knock","otter",33,1,-99,-99,NA,NA,0,1,-99,-99
"2503","find","clown",34,1,-99,-99,NA,NA,0,0,-99,-99
"2503","pea","bathtub",35,1,-99,-99,NA,NA,0,1,-99,-99
"2503","forest","knob",36,1,-99,-99,NA,NA,0,0,-99,-99
"2503","link","crisis",37,1,-99,-99,NA,NA,1,0,-99,-99
"2503","fan","feature",38,1,-99,-99,NA,NA,1,0,-99,-99
"2503","anger","decay",39,1,-99,-99,NA,NA,0,1,-99,-99
"2503","process","joker",40,1,-99,-99,NA,NA,1,1,-99,-99
"2503","link","crisis",1,2,-99,-99,NA,NA,1,0,-99,-99
"2503","knock","otter",2,2,-99,-99,NA,NA,0,1,-99,-99
"2503","want","ascent",3,2,-99,-99,NA,NA,0,0,-99,-99
"2503","climax","saucer",4,2,-99,-99,NA,NA,1,1,-99,-99
"2503","process","joker",5,2,-99,-99,NA,NA,1,1,-99,-99
"2503","port","cinema",6,2,-99,-99,NA,NA,0,0,-99,-99
"2503","grip","beach",7,2,-99,-99,NA,NA,1,1,-99,-99
"2503","bullet","walkway",8,2,-99,-99,NA,NA,0,0,-99,-99
"2503","collect","loyalty",9,2,-99,-99,NA,NA,1,0,-99,-99
"2503","find","clown",10,2,-99,-99,NA,NA,0,0,-99,-99
"2503","replace","roach",11,2,-99,-99,NA,NA,1,0,-99,-99
"2503","remind","foam",12,2,-99,-99,NA,NA,0,0,-99,-99
"2503","forest","knob",13,2,-99,-99,NA,NA,0,0,-99,-99
"2503","rock","milk",14,2,-99,-99,NA,NA,1,0,-99,-99
"2503","plant","worm",15,2,-99,-99,NA,NA,1,0,-99,-99
"2503","pea","bathtub",16,2,-99,-99,NA,NA,0,1,-99,-99
"2503","nerve","bumper",17,2,-99,-99,NA,NA,1,1,-99,-99
"2503","date","laugh",18,2,-99,-99,NA,NA,1,1,-99,-99
"2503","visit","glove",19,2,-99,-99,NA,NA,1,0,-99,-99
"2503","calf","annoy",20,2,-99,-99,NA,NA,0,0,-99,-99
"2503","chicken","beet",21,2,-99,-99,NA,NA,1,0,-99,-99
"2503","pork","emperor",22,2,-99,-99,NA,NA,0,0,-99,-99
"2503","biology","temper",23,2,-99,-99,NA,NA,1,0,-99,-99
"2503","shrink","mafia",24,2,-99,-99,NA,NA,0,0,-99,-99
"2503","anger","decay",25,2,-99,-99,NA,NA,0,1,-99,-99
"2503","banner","glide",26,2,-99,-99,NA,NA,0,1,-99,-99
"2503","copy","bedroom",27,2,-99,-99,NA,NA,0,1,-99,-99
"2503","need","faucet",28,2,-99,-99,NA,NA,1,1,-99,-99
"2503","bias","sirloin",29,2,-99,-99,NA,NA,0,1,-99,-99
"2503","bleach","ruin",30,2,-99,-99,NA,NA,1,1,-99,-99
"2503","fan","feature",31,2,-99,-99,NA,NA,1,0,-99,-99
"2503","bacon","feud",32,2,-99,-99,NA,NA,1,1,-99,-99
"2503","mill","feast",33,2,-99,-99,NA,NA,0,1,-99,-99
"2503","risk","zero",34,2,-99,-99,NA,NA,0,1,-99,-99
"2503","fee","chowder",35,2,-99,-99,NA,NA,1,1,-99,-99
"2503","caring","skirt",36,2,-99,-99,NA,NA,1,0,-99,-99
"2503","capital","figure",37,2,-99,-99,NA,NA,0,1,-99,-99
"2503","prison","loaf",38,2,-99,-99,NA,NA,0,1,-99,-99
"2503","smother","surgery",39,2,-99,-99,NA,NA,0,0,-99,-99
"2503","glue","force",40,2,-99,-99,NA,NA,1,1,-99,-99
"2503","remind","foam",1,3,32,5.913,8,0.2,0,0,1,3.96
"2503","need","faucet",2,3,74,2.393,39,0.975,1,1,1,1.31
"2503","find","clown",3,3,34,2.214,9,0.225,0,0,1,0.673
"2503","pork","emperor",4,3,30,2.923,5,0.125,0,0,1,3.603
"2503","fee","chowder",5,3,66,2.053,31,0.775,1,1,1,1.471
"2503","want","ascent",6,3,1,1.693,1,0.025,0,0,1,1.637
"2503","smother","surgery",7,3,17,3.008,2,0.05,0,0,1,1.588
"2503","forest","knob",8,3,39,3.566,12,0.3,0,0,1,1.475
"2503","process","joker",9,3,47,1.374,18,0.45,1,1,1,0.869
"2503","date","laugh",10,3,64,2.125,29,0.725,1,1,1,1.121
"2503","bullet","walkway",11,3,41,2.267,13,0.325,0,0,1,0.781
"2503","bleach","ruin",12,3,67,2.096,33,0.825,1,1,1,0.784
"2503","grip","beach",13,3,45,1.734,17,0.425,1,1,1,0.756
"2503","calf","annoy",14,3,35,1.902,10,0.25,0,0,1,0.704
"2503","climax","saucer",15,3,64,2.084,30,0.75,1,1,1,0.717
"2503","bacon","feud",16,3,43,2.888,14,0.35,1,1,1,1.24
"2503","glue","force",17,3,61,2.035,26,0.65,1,1,1,0.951
"2503","shrink","mafia",18,3,30,2.186,6,0.15,0,0,1,1.775
"2503","nerve","bumper",19,3,69,1.487,36,0.9,1,1,1,0.6
"2503","port","cinema",20,3,38,1.681,11,0.275,0,0,1,1.547
"2503","plant","worm",21,3,62,2.091,27,0.675,1,0,0,1.241
"2503","bias","sirloin",22,3,51,2.887,19,0.475,0,1,0,0.709
"2503","replace","roach",23,3,76,2.111,40,1,1,0,0,1.143
"2503","visit","glove",24,3,63,2.345,28,0.7,1,0,0,0.751
"2503","banner","glide",25,3,44,2.009,16,0.4,0,1,0,1.073
"2503","fan","feature",26,3,73,3.681,38,0.95,1,0,0,2.467
"2503","knock","otter",27,3,55,3.855,21,0.525,0,1,0,1.605
"2503","capital","figure",28,3,43,3.129,15,0.375,0,1,0,0.715
"2503","rock","milk",29,3,67,1.835,34,0.85,1,0,0,3.235
"2503","mill","feast",30,3,57,2.209,23,0.575,0,1,0,2.809
"2503","prison","loaf",31,3,55,1.905,22,0.55,0,1,0,2.059
"2503","link","crisis",32,3,71,6.855,37,0.925,1,0,0,1.153
"2503","anger","decay",33,3,51,2.267,20,0.5,0,1,0,9.181
"2503","biology","temper",34,3,66,2.029,32,0.8,1,0,0,0.702
"2503","copy","bedroom",35,3,26,1.762,3,0.075,0,1,0,0.8
"2503","risk","zero",36,3,31,1.681,7,0.175,0,1,0,0.916
"2503","collect","loyalty",37,3,60,1.677,25,0.625,1,0,0,0.747
"2503","pea","bathtub",38,3,26,1.898,4,0.1,0,1,0,0.744
"2503","chicken","beet",39,3,57,1.903,24,0.6,1,0,0,0.613
"2503","caring","skirt",40,3,68,2.222,35,0.875,1,0,0,0.831
"2652","glue","force",1,1,-99,-99,NA,NA,1,1,-99,-99
"2652","pea","bathtub",2,1,-99,-99,NA,NA,1,0,-99,-99
"2652","mill","feast",3,1,-99,-99,NA,NA,0,0,-99,-99
"2652","bacon","feud",4,1,-99,-99,NA,NA,1,1,-99,-99
"2652","replace","roach",5,1,-99,-99,NA,NA,1,0,-99,-99
"2652","visit","glove",6,1,-99,-99,NA,NA,0,1,-99,-99
"2652","prison","loaf",7,1,-99,-99,NA,NA,0,0,-99,-99
"2652","process","joker",8,1,-99,-99,NA,NA,1,0,-99,-99
"2652","find","clown",9,1,-99,-99,NA,NA,1,1,-99,-99
"2652","plant","worm",10,1,-99,-99,NA,NA,1,0,-99,-99
"2652","anger","decay",11,1,-99,-99,NA,NA,1,0,-99,-99
"2652","rock","milk",12,1,-99,-99,NA,NA,0,1,-99,-99
"2652","biology","temper",13,1,-99,-99,NA,NA,0,1,-99,-99
"2652","link","crisis",14,1,-99,-99,NA,NA,1,1,-99,-99
"2652","pork","emperor",15,1,-99,-99,NA,NA,0,0,-99,-99
"2652","grip","beach",16,1,-99,-99,NA,NA,1,1,-99,-99
"2652","forest","knob",17,1,-99,-99,NA,NA,1,1,-99,-99
"2652","want","ascent",18,1,-99,-99,NA,NA,0,1,-99,-99
"2652","bias","sirloin",19,1,-99,-99,NA,NA,1,0,-99,-99
"2652","banner","glide",20,1,-99,-99,NA,NA,1,0,-99,-99
"2652","bleach","ruin",21,1,-99,-99,NA,NA,0,0,-99,-99
"2652","copy","bedroom",22,1,-99,-99,NA,NA,0,1,-99,-99
"2652","chicken","beet",23,1,-99,-99,NA,NA,0,0,-99,-99
"2652","smother","surgery",24,1,-99,-99,NA,NA,0,0,-99,-99
"2652","port","cinema",25,1,-99,-99,NA,NA,0,0,-99,-99
"2652","knock","otter",26,1,-99,-99,NA,NA,0,1,-99,-99
"2652","calf","annoy",27,1,-99,-99,NA,NA,1,0,-99,-99
"2652","collect","loyalty",28,1,-99,-99,NA,NA,1,0,-99,-99
"2652","remind","foam",29,1,-99,-99,NA,NA,0,1,-99,-99
"2652","shrink","mafia",30,1,-99,-99,NA,NA,0,1,-99,-99
"2652","need","faucet",31,1,-99,-99,NA,NA,0,0,-99,-99
"2652","fan","feature",32,1,-99,-99,NA,NA,0,1,-99,-99
"2652","fee","chowder",33,1,-99,-99,NA,NA,1,0,-99,-99
"2652","climax","saucer",34,1,-99,-99,NA,NA,1,1,-99,-99
"2652","caring","skirt",35,1,-99,-99,NA,NA,1,1,-99,-99
"2652","risk","zero",36,1,-99,-99,NA,NA,0,1,-99,-99
"2652","nerve","bumper",37,1,-99,-99,NA,NA,1,1,-99,-99
"2652","bullet","walkway",38,1,-99,-99,NA,NA,0,0,-99,-99
"2652","date","laugh",39,1,-99,-99,NA,NA,0,0,-99,-99
"2652","capital","figure",40,1,-99,-99,NA,NA,1,1,-99,-99
"2652","process","joker",1,2,-99,-99,NA,NA,1,0,-99,-99
"2652","replace","roach",2,2,-99,-99,NA,NA,1,0,-99,-99
"2652","visit","glove",3,2,-99,-99,NA,NA,0,1,-99,-99
"2652","smother","surgery",4,2,-99,-99,NA,NA,0,0,-99,-99
"2652","anger","decay",5,2,-99,-99,NA,NA,1,0,-99,-99
"2652","biology","temper",6,2,-99,-99,NA,NA,0,1,-99,-99
"2652","remind","foam",7,2,-99,-99,NA,NA,0,1,-99,-99
"2652","prison","loaf",8,2,-99,-99,NA,NA,0,0,-99,-99
"2652","need","faucet",9,2,-99,-99,NA,NA,0,0,-99,-99
"2652","climax","saucer",10,2,-99,-99,NA,NA,1,1,-99,-99
"2652","fee","chowder",11,2,-99,-99,NA,NA,1,0,-99,-99
"2652","want","ascent",12,2,-99,-99,NA,NA,0,1,-99,-99
"2652","rock","milk",13,2,-99,-99,NA,NA,0,1,-99,-99
"2652","pea","bathtub",14,2,-99,-99,NA,NA,1,0,-99,-99
"2652","plant","worm",15,2,-99,-99,NA,NA,1,0,-99,-99
"2652","shrink","mafia",16,2,-99,-99,NA,NA,0,1,-99,-99
"2652","capital","figure",17,2,-99,-99,NA,NA,1,1,-99,-99
"2652","glue","force",18,2,-99,-99,NA,NA,1,1,-99,-99
"2652","bacon","feud",19,2,-99,-99,NA,NA,1,1,-99,-99
"2652","calf","annoy",20,2,-99,-99,NA,NA,1,0,-99,-99
"2652","bullet","walkway",21,2,-99,-99,NA,NA,0,0,-99,-99
"2652","bias","sirloin",22,2,-99,-99,NA,NA,1,0,-99,-99
"2652","pork","emperor",23,2,-99,-99,NA,NA,0,0,-99,-99
"2652","date","laugh",24,2,-99,-99,NA,NA,0,0,-99,-99
"2652","copy","bedroom",25,2,-99,-99,NA,NA,0,1,-99,-99
"2652","fan","feature",26,2,-99,-99,NA,NA,0,1,-99,-99
"2652","chicken","beet",27,2,-99,-99,NA,NA,0,0,-99,-99
"2652","forest","knob",28,2,-99,-99,NA,NA,1,1,-99,-99
"2652","link","crisis",29,2,-99,-99,NA,NA,1,1,-99,-99
"2652","knock","otter",30,2,-99,-99,NA,NA,0,1,-99,-99
"2652","find","clown",31,2,-99,-99,NA,NA,1,1,-99,-99
"2652","bleach","ruin",32,2,-99,-99,NA,NA,0,0,-99,-99
"2652","port","cinema",33,2,-99,-99,NA,NA,0,0,-99,-99
"2652","grip","beach",34,2,-99,-99,NA,NA,1,1,-99,-99
"2652","mill","feast",35,2,-99,-99,NA,NA,0,0,-99,-99
"2652","risk","zero",36,2,-99,-99,NA,NA,0,1,-99,-99
"2652","banner","glide",37,2,-99,-99,NA,NA,1,0,-99,-99
"2652","caring","skirt",38,2,-99,-99,NA,NA,1,1,-99,-99
"2652","collect","loyalty",39,2,-99,-99,NA,NA,1,0,-99,-99
"2652","nerve","bumper",40,2,-99,-99,NA,NA,1,1,-99,-99
"2652","grip","beach",1,3,20,8.825,12,0.3,1,1,1,10.479
"2652","bias","sirloin",2,3,10,4.723,1,0.025,1,0,0,1.153
"2652","pea","bathtub",3,3,20,11.241,13,0.325,1,0,0,0.944
"2652","find","clown",4,3,75,5.082,29,0.725,1,1,1,0.808
"2652","prison","loaf",5,3,80,5.942,36,0.9,0,0,1,0.958
"2652","pork","emperor",6,3,85,5.491,39,0.975,0,0,1,1.563
"2652","visit","glove",7,3,20,8.016,14,0.35,0,1,0,0.768
"2652","want","ascent",8,3,20,4.885,15,0.375,0,1,0,0.725
"2652","bleach","ruin",9,3,80,3.754,37,0.925,0,0,1,0.7
"2652","banner","glide",10,3,10,4.623,2,0.05,1,0,0,0.647
"2652","biology","temper",11,3,31,4.746,23,0.575,0,1,0,0.662
"2652","glue","force",12,3,65,6.849,27,0.675,1,1,1,0.668
"2652","shrink","mafia",13,3,20,5.767,16,0.4,0,1,0,0.638
"2652","process","joker",14,3,15,2.932,5,0.125,1,0,0,0.603
"2652","link","crisis",15,3,50,6.302,24,0.6,1,1,1,0.898
"2652","knock","otter",16,3,21,3.104,20,0.5,0,1,0,0.63
"2652","bacon","feud",17,3,75,4.159,30,0.75,1,1,1,0.607
"2652","forest","knob",18,3,67,4.372,28,0.7,1,1,1,0.728
"2652","copy","bedroom",19,3,22,4.371,21,0.525,0,1,0,0.906
"2652","risk","zero",20,3,50,9.921,25,0.625,0,1,0,0.685
"2652","anger","decay",21,3,10,15.18,3,0.075,1,0,0,0.831
"2652","bullet","walkway",22,3,85,5.134,40,1,0,0,1,0.674
"2652","fee","chowder",23,3,19,5.285,11,0.275,1,0,0,0.627
"2652","rock","milk",24,3,25,6.65,22,0.55,0,1,0,0.643
"2652","date","laugh",25,3,75,4.898,31,0.775,0,0,1,0.552
"2652","fan","feature",26,3,50,5.511,26,0.65,0,1,0,0.614
"2652","replace","roach",27,3,15,4.981,6,0.15,1,0,0,0.711
"2652","calf","annoy",28,3,15,6.14,7,0.175,1,0,0,0.924
"2652","collect","loyalty",29,3,15,2.695,8,0.2,1,0,0,0.589
"2652","plant","worm",30,3,15,5.992,9,0.225,1,0,0,0.488
"2652","need","faucet",31,3,79,6.093,34,0.85,0,0,1,1.289
"2652","chicken","beet",32,3,75,4.229,32,0.8,0,0,1,0.606
"2652","remind","foam",33,3,20,5.222,17,0.425,0,1,0,1.472
"2652","nerve","bumper",34,3,20,5.763,18,0.45,1,1,1,0.82
"2652","smother","surgery",35,3,80,4.77,38,0.95,0,0,1,0.818
"2652","capital","figure",36,3,20,8.834,19,0.475,1,1,1,0.711
"2652","climax","saucer",37,3,10,9.521,4,0.1,1,1,1,0.751
"2652","port","cinema",38,3,79,5.914,35,0.875,0,0,1,0.98
"2652","caring","skirt",39,3,15,2.438,10,0.25,1,1,1,0.952
"2652","mill","feast",40,3,75,3.653,33,0.825,0,0,1,0.865
"2727","biology","temper",1,1,-99,-99,NA,NA,1,0,-99,-99
"2727","pea","bathtub",2,1,-99,-99,NA,NA,0,0,-99,-99
"2727","find","clown",3,1,-99,-99,NA,NA,0,0,-99,-99
"2727","plant","worm",4,1,-99,-99,NA,NA,0,0,-99,-99
"2727","banner","glide",5,1,-99,-99,NA,NA,1,0,-99,-99
"2727","rock","milk",6,1,-99,-99,NA,NA,1,1,-99,-99
"2727","mill","feast",7,1,-99,-99,NA,NA,0,1,-99,-99
"2727","bullet","walkway",8,1,-99,-99,NA,NA,0,1,-99,-99
"2727","caring","skirt",9,1,-99,-99,NA,NA,0,0,-99,-99
"2727","bacon","feud",10,1,-99,-99,NA,NA,0,1,-99,-99
"2727","visit","glove",11,1,-99,-99,NA,NA,0,0,-99,-99
"2727","smother","surgery",12,1,-99,-99,NA,NA,0,0,-99,-99
"2727","anger","decay",13,1,-99,-99,NA,NA,1,1,-99,-99
"2727","link","crisis",14,1,-99,-99,NA,NA,0,0,-99,-99
"2727","date","laugh",15,1,-99,-99,NA,NA,1,1,-99,-99
"2727","collect","loyalty",16,1,-99,-99,NA,NA,0,1,-99,-99
"2727","grip","beach",17,1,-99,-99,NA,NA,1,0,-99,-99
"2727","bleach","ruin",18,1,-99,-99,NA,NA,1,0,-99,-99
"2727","glue","force",19,1,-99,-99,NA,NA,1,0,-99,-99
"2727","remind","foam",20,1,-99,-99,NA,NA,0,0,-99,-99
"2727","prison","loaf",21,1,-99,-99,NA,NA,0,1,-99,-99
"2727","replace","roach",22,1,-99,-99,NA,NA,1,0,-99,-99
"2727","copy","bedroom",23,1,-99,-99,NA,NA,0,1,-99,-99
"2727","process","joker",24,1,-99,-99,NA,NA,1,1,-99,-99
"2727","bias","sirloin",25,1,-99,-99,NA,NA,1,1,-99,-99
"2727","nerve","bumper",26,1,-99,-99,NA,NA,1,0,-99,-99
"2727","capital","figure",27,1,-99,-99,NA,NA,1,1,-99,-99
"2727","climax","saucer",28,1,-99,-99,NA,NA,0,0,-99,-99
"2727","shrink","mafia",29,1,-99,-99,NA,NA,0,1,-99,-99
"2727","fan","feature",30,1,-99,-99,NA,NA,0,1,-99,-99
"2727","need","faucet",31,1,-99,-99,NA,NA,1,1,-99,-99
"2727","pork","emperor",32,1,-99,-99,NA,NA,0,0,-99,-99
"2727","risk","zero",33,1,-99,-99,NA,NA,1,1,-99,-99
"2727","want","ascent",34,1,-99,-99,NA,NA,1,1,-99,-99
"2727","chicken","beet",35,1,-99,-99,NA,NA,1,0,-99,-99
"2727","port","cinema",36,1,-99,-99,NA,NA,0,1,-99,-99
"2727","fee","chowder",37,1,-99,-99,NA,NA,0,1,-99,-99
"2727","calf","annoy",38,1,-99,-99,NA,NA,1,0,-99,-99
"2727","forest","knob",39,1,-99,-99,NA,NA,1,0,-99,-99
"2727","knock","otter",40,1,-99,-99,NA,NA,1,1,-99,-99
"2727","date","laugh",1,2,-99,-99,NA,NA,1,1,-99,-99
"2727","biology","temper",2,2,-99,-99,NA,NA,1,0,-99,-99
"2727","link","crisis",3,2,-99,-99,NA,NA,0,0,-99,-99
"2727","forest","knob",4,2,-99,-99,NA,NA,1,0,-99,-99
"2727","capital","figure",5,2,-99,-99,NA,NA,1,1,-99,-99
"2727","collect","loyalty",6,2,-99,-99,NA,NA,0,1,-99,-99
"2727","mill","feast",7,2,-99,-99,NA,NA,0,1,-99,-99
"2727","grip","beach",8,2,-99,-99,NA,NA,1,0,-99,-99
"2727","caring","skirt",9,2,-99,-99,NA,NA,0,0,-99,-99
"2727","banner","glide",10,2,-99,-99,NA,NA,1,0,-99,-99
"2727","bacon","feud",11,2,-99,-99,NA,NA,0,1,-99,-99
"2727","calf","annoy",12,2,-99,-99,NA,NA,1,0,-99,-99
"2727","climax","saucer",13,2,-99,-99,NA,NA,0,0,-99,-99
"2727","want","ascent",14,2,-99,-99,NA,NA,1,1,-99,-99
"2727","fee","chowder",15,2,-99,-99,NA,NA,0,1,-99,-99
"2727","anger","decay",16,2,-99,-99,NA,NA,1,1,-99,-99
"2727","smother","surgery",17,2,-99,-99,NA,NA,0,0,-99,-99
"2727","process","joker",18,2,-99,-99,NA,NA,1,1,-99,-99
"2727","need","faucet",19,2,-99,-99,NA,NA,1,1,-99,-99
"2727","bullet","walkway",20,2,-99,-99,NA,NA,0,1,-99,-99
"2727","copy","bedroom",21,2,-99,-99,NA,NA,0,1,-99,-99
"2727","glue","force",22,2,-99,-99,NA,NA,1,0,-99,-99
"2727","remind","foam",23,2,-99,-99,NA,NA,0,0,-99,-99
"2727","visit","glove",24,2,-99,-99,NA,NA,0,0,-99,-99
"2727","bias","sirloin",25,2,-99,-99,NA,NA,1,1,-99,-99
"2727","pea","bathtub",26,2,-99,-99,NA,NA,0,0,-99,-99
"2727","port","cinema",27,2,-99,-99,NA,NA,0,1,-99,-99
"2727","risk","zero",28,2,-99,-99,NA,NA,1,1,-99,-99
"2727","fan","feature",29,2,-99,-99,NA,NA,0,1,-99,-99
"2727","nerve","bumper",30,2,-99,-99,NA,NA,1,0,-99,-99
"2727","rock","milk",31,2,-99,-99,NA,NA,1,1,-99,-99
"2727","pork","emperor",32,2,-99,-99,NA,NA,0,0,-99,-99
"2727","knock","otter",33,2,-99,-99,NA,NA,1,1,-99,-99
"2727","prison","loaf",34,2,-99,-99,NA,NA,0,1,-99,-99
"2727","replace","roach",35,2,-99,-99,NA,NA,1,0,-99,-99
"2727","bleach","ruin",36,2,-99,-99,NA,NA,1,0,-99,-99
"2727","shrink","mafia",37,2,-99,-99,NA,NA,0,1,-99,-99
"2727","plant","worm",38,2,-99,-99,NA,NA,0,0,-99,-99
"2727","chicken","beet",39,2,-99,-99,NA,NA,1,0,-99,-99
"2727","find","clown",40,2,-99,-99,NA,NA,0,0,-99,-99
"2727","glue","force",1,3,77,8.858,40,1,1,0,0,11.301
"2727","port","cinema",2,3,63,6.999,11,0.275,0,1,0,5.64
"2727","copy","bedroom",3,3,65,6.597,19,0.475,0,1,0,5.179
"2727","grip","beach",4,3,71,4.013,37,0.925,1,0,0,1.329
"2727","calf","annoy",5,3,69,2.951,34,0.85,1,0,0,1.156
"2727","fee","chowder",6,3,66,3.191,26,0.65,0,1,0,1.496
"2727","mill","feast",7,3,61,2.919,4,0.1,0,1,0,1.848
"2727","replace","roach",8,3,72,2.594,38,0.95,1,0,0,1.547
"2727","nerve","bumper",9,3,66,2.881,27,0.675,1,0,0,1.876
"2727","banner","glide",10,3,66,3.186,28,0.7,1,0,0,3.858
"2727","bleach","ruin",11,3,73,3.107,39,0.975,1,0,0,1.768
"2727","chicken","beet",12,3,70,2.494,35,0.875,1,0,0,1.172
"2727","bacon","feud",13,3,65,2.751,20,0.5,0,1,0,1.217
"2727","fan","feature",14,3,62,2.288,7,0.175,0,1,0,1.152
"2727","biology","temper",15,3,70,1.979,36,0.9,1,0,0,1.298
"2727","bullet","walkway",16,3,61,2.096,5,0.125,0,1,0,1.369
"2727","prison","loaf",17,3,64,2.015,15,0.375,0,1,0,1.307
"2727","shrink","mafia",18,3,65,2.391,21,0.525,0,1,0,1.497
"2727","forest","knob",19,3,66,2.333,29,0.725,1,0,0,1.28
"2727","collect","loyalty",20,3,54,1.964,2,0.05,0,1,0,1.468
"2727","remind","foam",21,3,62,2.15,8,0.2,0,0,1,5.18
"2727","smother","surgery",22,3,60,4.846,3,0.075,0,0,1,4.497
"2727","date","laugh",23,3,67,9.362,32,0.8,1,1,1,1.183
"2727","need","faucet",24,3,66,2.11,30,0.75,1,1,1,1.318
"2727","rock","milk",25,3,67,2.723,33,0.825,1,1,1,1.056
"2727","bias","sirloin",26,3,65,2.644,22,0.55,1,1,1,1.982
"2727","find","clown",27,3,61,2.531,6,0.15,0,0,1,1.418
"2727","caring","skirt",28,3,51,2.001,1,0.025,0,0,1,1.498
"2727","process","joker",29,3,65,2.494,23,0.575,1,1,1,1.061
"2727","link","crisis",30,3,63,2.142,12,0.3,0,0,1,1.227
"2727","visit","glove",31,3,64,2.317,16,0.4,0,0,1,1.061
"2727","want","ascent",32,3,64,3.053,17,0.425,1,1,1,1.062
"2727","climax","saucer",33,3,62,2.568,9,0.225,0,0,1,1.158
"2727","pea","bathtub",34,3,63,2.062,13,0.325,0,0,1,1.218
"2727","risk","zero",35,3,64,2.546,18,0.45,1,1,1,1.151
"2727","anger","decay",36,3,66,2.064,31,0.775,1,1,1,1.688
"2727","knock","otter",37,3,65,2.342,24,0.6,1,1,1,1.27
"2727","pork","emperor",38,3,63,2.445,14,0.35,0,0,1,1.249
"2727","plant","worm",39,3,62,2.092,10,0.25,0,0,1,1.138
"2727","capital","figure",40,3,65,2.158,25,0.625,1,1,1,1.623
"2767","climax","saucer",1,1,-99,-99,NA,NA,1,0,-99,-99
"2767","fan","feature",2,1,-99,-99,NA,NA,1,1,-99,-99
"2767","need","faucet",3,1,-99,-99,NA,NA,0,0,-99,-99
"2767","calf","annoy",4,1,-99,-99,NA,NA,0,1,-99,-99
"2767","chicken","beet",5,1,-99,-99,NA,NA,1,1,-99,-99
"2767","bacon","feud",6,1,-99,-99,NA,NA,1,1,-99,-99
"2767","mill","feast",7,1,-99,-99,NA,NA,1,1,-99,-99
"2767","banner","glide",8,1,-99,-99,NA,NA,0,1,-99,-99
"2767","bullet","walkway",9,1,-99,-99,NA,NA,0,0,-99,-99
"2767","pork","emperor",10,1,-99,-99,NA,NA,1,1,-99,-99
"2767","collect","loyalty",11,1,-99,-99,NA,NA,1,1,-99,-99
"2767","bleach","ruin",12,1,-99,-99,NA,NA,1,1,-99,-99
"2767","forest","knob",13,1,-99,-99,NA,NA,1,0,-99,-99
"2767","glue","force",14,1,-99,-99,NA,NA,0,0,-99,-99
"2767","replace","roach",15,1,-99,-99,NA,NA,1,0,-99,-99
"2767","copy","bedroom",16,1,-99,-99,NA,NA,0,1,-99,-99
"2767","risk","zero",17,1,-99,-99,NA,NA,0,1,-99,-99
"2767","visit","glove",18,1,-99,-99,NA,NA,1,0,-99,-99
"2767","capital","figure",19,1,-99,-99,NA,NA,1,0,-99,-99
"2767","grip","beach",20,1,-99,-99,NA,NA,0,0,-99,-99
"2767","bias","sirloin",21,1,-99,-99,NA,NA,0,0,-99,-99
"2767","process","joker",22,1,-99,-99,NA,NA,0,0,-99,-99
"2767","want","ascent",23,1,-99,-99,NA,NA,0,0,-99,-99
"2767","caring","skirt",24,1,-99,-99,NA,NA,1,0,-99,-99
"2767","port","cinema",25,1,-99,-99,NA,NA,1,0,-99,-99
"2767","plant","worm",26,1,-99,-99,NA,NA,0,0,-99,-99
"2767","biology","temper",27,1,-99,-99,NA,NA,0,1,-99,-99
"2767","date","laugh",28,1,-99,-99,NA,NA,1,0,-99,-99
"2767","prison","loaf",29,1,-99,-99,NA,NA,1,1,-99,-99
"2767","fee","chowder",30,1,-99,-99,NA,NA,0,1,-99,-99
"2767","rock","milk",31,1,-99,-99,NA,NA,1,1,-99,-99
"2767","smother","surgery",32,1,-99,-99,NA,NA,0,1,-99,-99
"2767","pea","bathtub",33,1,-99,-99,NA,NA,0,1,-99,-99
"2767","find","clown",34,1,-99,-99,NA,NA,1,0,-99,-99
"2767","link","crisis",35,1,-99,-99,NA,NA,1,0,-99,-99
"2767","anger","decay",36,1,-99,-99,NA,NA,0,1,-99,-99
"2767","knock","otter",37,1,-99,-99,NA,NA,1,1,-99,-99
"2767","remind","foam",38,1,-99,-99,NA,NA,0,0,-99,-99
"2767","nerve","bumper",39,1,-99,-99,NA,NA,0,0,-99,-99
"2767","shrink","mafia",40,1,-99,-99,NA,NA,0,1,-99,-99
"2767","copy","bedroom",1,2,-99,-99,NA,NA,0,1,-99,-99
"2767","bullet","walkway",2,2,-99,-99,NA,NA,0,0,-99,-99
"2767","banner","glide",3,2,-99,-99,NA,NA,0,1,-99,-99
"2767","replace","roach",4,2,-99,-99,NA,NA,1,0,-99,-99
"2767","find","clown",5,2,-99,-99,NA,NA,1,0,-99,-99
"2767","rock","milk",6,2,-99,-99,NA,NA,1,1,-99,-99
"2767","capital","figure",7,2,-99,-99,NA,NA,1,0,-99,-99
"2767","date","laugh",8,2,-99,-99,NA,NA,1,0,-99,-99
"2767","risk","zero",9,2,-99,-99,NA,NA,0,1,-99,-99
"2767","bacon","feud",10,2,-99,-99,NA,NA,1,1,-99,-99
"2767","anger","decay",11,2,-99,-99,NA,NA,0,1,-99,-99
"2767","pork","emperor",12,2,-99,-99,NA,NA,1,1,-99,-99
"2767","bias","sirloin",13,2,-99,-99,NA,NA,0,0,-99,-99
"2767","port","cinema",14,2,-99,-99,NA,NA,1,0,-99,-99
"2767","pea","bathtub",15,2,-99,-99,NA,NA,0,1,-99,-99
"2767","bleach","ruin",16,2,-99,-99,NA,NA,1,1,-99,-99
"2767","fan","feature",17,2,-99,-99,NA,NA,1,1,-99,-99
"2767","caring","skirt",18,2,-99,-99,NA,NA,1,0,-99,-99
"2767","grip","beach",19,2,-99,-99,NA,NA,0,0,-99,-99
"2767","biology","temper",20,2,-99,-99,NA,NA,0,1,-99,-99
"2767","link","crisis",21,2,-99,-99,NA,NA,1,0,-99,-99
"2767","knock","otter",22,2,-99,-99,NA,NA,1,1,-99,-99
"2767","chicken","beet",23,2,-99,-99,NA,NA,1,1,-99,-99
"2767","smother","surgery",24,2,-99,-99,NA,NA,0,1,-99,-99
"2767","process","joker",25,2,-99,-99,NA,NA,0,0,-99,-99
"2767","remind","foam",26,2,-99,-99,NA,NA,0,0,-99,-99
"2767","glue","force",27,2,-99,-99,NA,NA,0,0,-99,-99
"2767","visit","glove",28,2,-99,-99,NA,NA,1,0,-99,-99
"2767","shrink","mafia",29,2,-99,-99,NA,NA,0,1,-99,-99
"2767","collect","loyalty",30,2,-99,-99,NA,NA,1,1,-99,-99
"2767","forest","knob",31,2,-99,-99,NA,NA,1,0,-99,-99
"2767","plant","worm",32,2,-99,-99,NA,NA,0,0,-99,-99
"2767","mill","feast",33,2,-99,-99,NA,NA,1,1,-99,-99
"2767","need","faucet",34,2,-99,-99,NA,NA,0,0,-99,-99
"2767","climax","saucer",35,2,-99,-99,NA,NA,1,0,-99,-99
"2767","fee","chowder",36,2,-99,-99,NA,NA,0,1,-99,-99
"2767","nerve","bumper",37,2,-99,-99,NA,NA,0,0,-99,-99
"2767","prison","loaf",38,2,-99,-99,NA,NA,1,1,-99,-99
"2767","want","ascent",39,2,-99,-99,NA,NA,0,0,-99,-99
"2767","calf","annoy",40,2,-99,-99,NA,NA,0,1,-99,-99
"2767","grip","beach",1,3,65,20.274,27,0.675,0,0,1,21.844
"2767","banner","glide",2,3,10,4.275,1,0.025,0,1,0,1.293
"2767","forest","knob",3,3,70,5.438,28,0.7,1,0,0,3.181
"2767","bullet","walkway",4,3,100,3.925,30,0.75,0,0,1,2.263
"2767","biology","temper",5,3,26,4.318,8,0.2,0,1,0,0.918
"2767","anger","decay",6,3,20,5.15,4,0.1,0,1,0,0.926
"2767","climax","saucer",7,3,50,11.053,24,0.6,1,0,0,1.567
"2767","knock","otter",8,3,100,5.621,31,0.775,1,1,1,0.822
"2767","calf","annoy",9,3,15,3.405,3,0.075,0,1,0,0.87
"2767","risk","zero",10,3,23,3.972,6,0.15,0,1,0,0.789
"2767","rock","milk",11,3,100,7.47,32,0.8,1,1,1,1.339
"2767","prison","loaf",12,3,100,3.919,33,0.825,1,1,1,0.82
"2767","copy","bedroom",13,3,26,5.118,9,0.225,0,1,0,0.77
"2767","pea","bathtub",14,3,21,2.725,5,0.125,0,1,0,2.054
"2767","date","laugh",15,3,29,2.574,13,0.325,1,0,0,0.847
"2767","fee","chowder",16,3,24,2.645,7,0.175,0,1,0,0.854
"2767","collect","loyalty",17,3,100,4.419,34,0.85,1,1,1,0.932
"2767","pork","emperor",18,3,100,13.085,35,0.875,1,1,1,0.982
"2767","link","crisis",19,3,50,7.71,25,0.625,1,0,0,2.933
"2767","port","cinema",20,3,50,5.214,26,0.65,1,0,0,0.812
"2767","caring","skirt",21,3,36,2.725,19,0.475,1,0,0,0.782
"2767","mill","feast",22,3,100,3.358,36,0.9,1,1,1,1.046
"2767","smother","surgery",23,3,28,2.861,11,0.275,0,1,0,0.903
"2767","find","clown",24,3,39,7.259,22,0.55,1,0,0,1.118
"2767","shrink","mafia",25,3,27,3.463,10,0.25,0,1,0,0.652
"2767","replace","roach",26,3,31,5.055,14,0.35,1,0,0,1.955
"2767","visit","glove",27,3,34,2.721,18,0.45,1,0,0,1.013
"2767","chicken","beet",28,3,100,3.205,37,0.925,1,1,1,0.758
"2767","capital","figure",29,3,32,4.582,17,0.425,1,0,0,1.111
"2767","plant","worm",30,3,39,3.853,23,0.575,0,0,1,2.654
"2767","remind","foam",31,3,38,3.213,21,0.525,0,0,1,2.981
"2767","want","ascent",32,3,31,2.429,15,0.375,0,0,1,1.006
"2767","process","joker",33,3,12,3.637,2,0.05,0,0,1,0.725
"2767","bleach","ruin",34,3,100,2.598,38,0.95,1,1,1,0.894
"2767","fan","feature",35,3,100,2.509,39,0.975,1,1,1,0.734
"2767","bias","sirloin",36,3,31,3.276,16,0.4,0,0,1,0.781
"2767","bacon","feud",37,3,100,2.143,40,1,1,1,1,1.916
"2767","need","faucet",38,3,36,3.227,20,0.5,0,0,1,0.688
"2767","nerve","bumper",39,3,28,2.14,12,0.3,0,0,1,0.662
"2767","glue","force",40,3,76,7.484,29,0.725,0,0,1,1.27
"2854","link","crisis",1,1,-99,-99,NA,NA,0,1,-99,-99
"2854","copy","bedroom",2,1,-99,-99,NA,NA,0,1,-99,-99
"2854","want","ascent",3,1,-99,-99,NA,NA,1,1,-99,-99
"2854","calf","annoy",4,1,-99,-99,NA,NA,0,0,-99,-99
"2854","plant","worm",5,1,-99,-99,NA,NA,0,0,-99,-99
"2854","bacon","feud",6,1,-99,-99,NA,NA,0,1,-99,-99
"2854","caring","skirt",7,1,-99,-99,NA,NA,1,1,-99,-99
"2854","chicken","beet",8,1,-99,-99,NA,NA,0,0,-99,-99
"2854","visit","glove",9,1,-99,-99,NA,NA,1,0,-99,-99
"2854","grip","beach",10,1,-99,-99,NA,NA,0,0,-99,-99
"2854","shrink","mafia",11,1,-99,-99,NA,NA,0,1,-99,-99
"2854","nerve","bumper",12,1,-99,-99,NA,NA,0,1,-99,-99
"2854","rock","milk",13,1,-99,-99,NA,NA,0,1,-99,-99
"2854","bullet","walkway",14,1,-99,-99,NA,NA,0,0,-99,-99
"2854","bleach","ruin",15,1,-99,-99,NA,NA,0,1,-99,-99
"2854","prison","loaf",16,1,-99,-99,NA,NA,1,0,-99,-99
"2854","need","faucet",17,1,-99,-99,NA,NA,1,1,-99,-99
"2854","climax","saucer",18,1,-99,-99,NA,NA,0,1,-99,-99
"2854","banner","glide",19,1,-99,-99,NA,NA,0,0,-99,-99
"2854","find","clown",20,1,-99,-99,NA,NA,1,1,-99,-99
"2854","port","cinema",21,1,-99,-99,NA,NA,1,1,-99,-99
"2854","fan","feature",22,1,-99,-99,NA,NA,0,1,-99,-99
"2854","date","laugh",23,1,-99,-99,NA,NA,1,1,-99,-99
"2854","forest","knob",24,1,-99,-99,NA,NA,1,0,-99,-99
"2854","remind","foam",25,1,-99,-99,NA,NA,1,0,-99,-99
"2854","glue","force",26,1,-99,-99,NA,NA,0,0,-99,-99
"2854","risk","zero",27,1,-99,-99,NA,NA,1,0,-99,-99
"2854","capital","figure",28,1,-99,-99,NA,NA,0,1,-99,-99
"2854","replace","roach",29,1,-99,-99,NA,NA,1,0,-99,-99
"2854","anger","decay",30,1,-99,-99,NA,NA,0,0,-99,-99
"2854","collect","loyalty",31,1,-99,-99,NA,NA,1,1,-99,-99
"2854","pork","emperor",32,1,-99,-99,NA,NA,0,0,-99,-99
"2854","process","joker",33,1,-99,-99,NA,NA,1,1,-99,-99
"2854","mill","feast",34,1,-99,-99,NA,NA,1,0,-99,-99
"2854","knock","otter",35,1,-99,-99,NA,NA,1,1,-99,-99
"2854","pea","bathtub",36,1,-99,-99,NA,NA,1,0,-99,-99
"2854","biology","temper",37,1,-99,-99,NA,NA,0,0,-99,-99
"2854","bias","sirloin",38,1,-99,-99,NA,NA,1,1,-99,-99
"2854","smother","surgery",39,1,-99,-99,NA,NA,1,0,-99,-99
"2854","fee","chowder",40,1,-99,-99,NA,NA,1,0,-99,-99
"2854","fee","chowder",1,2,-99,-99,NA,NA,1,0,-99,-99
"2854","grip","beach",2,2,-99,-99,NA,NA,0,0,-99,-99
"2854","want","ascent",3,2,-99,-99,NA,NA,1,1,-99,-99
"2854","copy","bedroom",4,2,-99,-99,NA,NA,0,1,-99,-99
"2854","rock","milk",5,2,-99,-99,NA,NA,0,1,-99,-99
"2854","chicken","beet",6,2,-99,-99,NA,NA,0,0,-99,-99
"2854","plant","worm",7,2,-99,-99,NA,NA,0,0,-99,-99
"2854","nerve","bumper",8,2,-99,-99,NA,NA,0,1,-99,-99
"2854","replace","roach",9,2,-99,-99,NA,NA,1,0,-99,-99
"2854","glue","force",10,2,-99,-99,NA,NA,0,0,-99,-99
"2854","pork","emperor",11,2,-99,-99,NA,NA,0,0,-99,-99
"2854","knock","otter",12,2,-99,-99,NA,NA,1,1,-99,-99
"2854","fan","feature",13,2,-99,-99,NA,NA,0,1,-99,-99
"2854","climax","saucer",14,2,-99,-99,NA,NA,0,1,-99,-99
"2854","process","joker",15,2,-99,-99,NA,NA,1,1,-99,-99
"2854","anger","decay",16,2,-99,-99,NA,NA,0,0,-99,-99
"2854","bleach","ruin",17,2,-99,-99,NA,NA,0,1,-99,-99
"2854","calf","annoy",18,2,-99,-99,NA,NA,0,0,-99,-99
"2854","link","crisis",19,2,-99,-99,NA,NA,0,1,-99,-99
"2854","biology","temper",20,2,-99,-99,NA,NA,0,0,-99,-99
"2854","capital","figure",21,2,-99,-99,NA,NA,0,1,-99,-99
"2854","caring","skirt",22,2,-99,-99,NA,NA,1,1,-99,-99
"2854","need","faucet",23,2,-99,-99,NA,NA,1,1,-99,-99
"2854","remind","foam",24,2,-99,-99,NA,NA,1,0,-99,-99
"2854","visit","glove",25,2,-99,-99,NA,NA,1,0,-99,-99
"2854","port","cinema",26,2,-99,-99,NA,NA,1,1,-99,-99
"2854","risk","zero",27,2,-99,-99,NA,NA,1,0,-99,-99
"2854","date","laugh",28,2,-99,-99,NA,NA,1,1,-99,-99
"2854","collect","loyalty",29,2,-99,-99,NA,NA,1,1,-99,-99
"2854","bias","sirloin",30,2,-99,-99,NA,NA,1,1,-99,-99
"2854","find","clown",31,2,-99,-99,NA,NA,1,1,-99,-99
"2854","mill","feast",32,2,-99,-99,NA,NA,1,0,-99,-99
"2854","bacon","feud",33,2,-99,-99,NA,NA,0,1,-99,-99
"2854","banner","glide",34,2,-99,-99,NA,NA,0,0,-99,-99
"2854","smother","surgery",35,2,-99,-99,NA,NA,1,0,-99,-99
"2854","shrink","mafia",36,2,-99,-99,NA,NA,0,1,-99,-99
"2854","pea","bathtub",37,2,-99,-99,NA,NA,1,0,-99,-99
"2854","bullet","walkway",38,2,-99,-99,NA,NA,0,0,-99,-99
"2854","forest","knob",39,2,-99,-99,NA,NA,1,0,-99,-99
"2854","prison","loaf",40,2,-99,-99,NA,NA,1,0,-99,-99
"2854","copy","bedroom",1,3,30,6.611,31,0.775,0,1,0,6.285
"2854","bacon","feud",2,3,38,7.62,34,0.85,0,1,0,2.619
"2854","rock","milk",3,3,38,2.951,35,0.875,0,1,0,1.451
"2854","link","crisis",4,3,25,4.519,22,0.55,0,1,0,1.819
"2854","pea","bathtub",5,3,17,3.588,12,0.3,1,0,0,1.554
"2854","fan","feature",6,3,21,3.361,15,0.375,0,1,0,1.282
"2854","shrink","mafia",7,3,20,4.24,14,0.35,0,1,0,1.886
"2854","climax","saucer",8,3,25,3.881,23,0.575,0,1,0,1.67
"2854","replace","roach",9,3,12,3.66,6,0.15,1,0,0,1.6
"2854","bleach","ruin",10,3,24,4.32,19,0.475,0,1,0,1.781
"2854","smother","surgery",11,3,10,4.778,4,0.1,1,0,0,1.577
"2854","fee","chowder",12,3,10,3.961,5,0.125,1,0,0,1.519
"2854","mill","feast",13,3,15,3.064,8,0.2,1,0,0,1.819
"2854","visit","glove",14,3,9,3.022,1,0.025,1,0,0,1.634
"2854","remind","foam",15,3,9,2.906,2,0.05,1,0,0,1.723
"2854","prison","loaf",16,3,9,3.066,3,0.075,1,0,0,1.539
"2854","risk","zero",17,3,14,3.08,7,0.175,1,0,0,1.618
"2854","plant","worm",18,3,83,4.416,40,1,0,0,1,1.634
"2854","nerve","bumper",19,3,26,3.206,26,0.65,0,1,0,1.84
"2854","forest","knob",20,3,18,4.079,13,0.325,1,0,0,1.51
"2854","capital","figure",21,3,21,2.984,16,0.4,0,1,0,1.319
"2854","port","cinema",22,3,15,3.273,9,0.225,1,1,1,1.758
"2854","anger","decay",23,3,29,2.919,30,0.75,0,0,1,1.575
"2854","calf","annoy",24,3,64,5.51,39,0.975,0,0,1,1.194
"2854","knock","otter",25,3,24,5.165,20,0.5,1,1,1,1.591
"2854","process","joker",26,3,24,2.927,21,0.525,1,1,1,1.478
"2854","date","laugh",27,3,26,4.08,27,0.675,1,1,1,1.372
"2854","bias","sirloin",28,3,21,3.132,17,0.425,1,1,1,1.477
"2854","find","clown",29,3,23,3.132,18,0.45,1,1,1,1.576
"2854","caring","skirt",30,3,16,3.307,11,0.275,1,1,1,1.466
"2854","grip","beach",31,3,26,2.978,28,0.7,0,0,1,1.283
"2854","pork","emperor",32,3,40,5.826,38,0.95,0,0,1,1.312
"2854","collect","loyalty",33,3,25,2.983,24,0.6,1,1,1,1.636
"2854","glue","force",34,3,38,3.382,36,0.9,0,0,1,1.685
"2854","banner","glide",35,3,39,2.396,37,0.925,0,0,1,1.342
"2854","want","ascent",36,3,25,2.911,25,0.625,1,1,1,1.421
"2854","need","faucet",37,3,15,4.358,10,0.25,1,1,1,1.464
"2854","bullet","walkway",38,3,35,2.73,32,0.8,0,0,1,1.782
"2854","chicken","beet",39,3,27,3.088,29,0.725,0,0,1,1.539
"2854","biology","temper",40,3,36,3.248,33,0.825,0,0,1,1.642
"2968","rock","milk",1,1,-99,-99,NA,NA,1,1,-99,-99
"2968","process","joker",2,1,-99,-99,NA,NA,1,1,-99,-99
"2968","shrink","mafia",3,1,-99,-99,NA,NA,0,0,-99,-99
"2968","bias","sirloin",4,1,-99,-99,NA,NA,0,1,-99,-99
"2968","forest","knob",5,1,-99,-99,NA,NA,0,0,-99,-99
"2968","calf","annoy",6,1,-99,-99,NA,NA,1,1,-99,-99
"2968","link","crisis",7,1,-99,-99,NA,NA,0,0,-99,-99
"2968","bullet","walkway",8,1,-99,-99,NA,NA,1,1,-99,-99
"2968","fee","chowder",9,1,-99,-99,NA,NA,0,1,-99,-99
"2968","mill","feast",10,1,-99,-99,NA,NA,0,0,-99,-99
"2968","plant","worm",11,1,-99,-99,NA,NA,0,1,-99,-99
