"subn","word1","word2","trial","list","jol","jolrt","jolrank","jolrankp","practice","honor","choice","choicert","restudyresp","restudyacc","restudyrtfirst","restudyrt","response","testacc","rtfirst","rt"
"1055","process","joker",1,1,25,3.415,18,0.45,1,1,1,1.566,NA,NA,NA,NA,"no",0,8.837,10.485
"1055","collect","loyalty",29,1,34,4.763,25,0.625,0,1,0,2.328,NA,NA,NA,NA,"loyalty",1,8.032,17.176
"1055","need","faucet",34,1,16,3.503,6,0.15,0,0,1,1.135,NA,NA,NA,NA,"faucet",1,5.259,8.446
"1055","capital","figure",12,1,73,4.04,36,0.9,1,0,0,0.933,NA,NA,NA,NA,"figure",1,5.079,7.606
"1055","fee","chowder",8,1,16,2.743,8,0.2,0,0,1,1.31,NA,NA,NA,NA,"chowder",1,4.766,7.694
"1055","link","crisis",18,1,18,2.845,11,0.275,0,1,0,1.533,NA,NA,NA,NA,"crisis",1,4.175,7.469
"1055","climax","saucer",37,1,15,8.309,4,0.1,0,0,1,1.39,NA,NA,NA,NA,"saucer",1,5.022,8.231
"1055","replace","roach",39,1,27,4.733,21,0.525,1,1,1,1.022,NA,NA,NA,NA,"no",0,4.441,6.08
"1055","port","cinema",28,1,78,5.076,38,0.95,1,0,0,1.23,NA,NA,NA,NA,"cinema",1,4.343,6.822
"1055","date","laugh",14,1,67,9.719,34,0.85,1,0,0,1.797,NA,NA,NA,NA,"laugh",1,2.079,4.455
"1055","chicken","beet",30,1,41,5.526,30,0.75,1,1,1,1.741,NA,NA,NA,NA,"beet",1,2.133,4.047
"1055","fan","feature",24,1,34,3.077,26,0.65,0,1,0,7.214,NA,NA,NA,NA,"feature",1,4.582,7.454
"1055","banner","glide",20,1,11,17.67,1,0.025,0,0,1,3.811,NA,NA,NA,NA,"glide",1,3.419,5.59
"1055","shrink","mafia",10,1,31,2.876,23,0.575,1,1,1,7.255,NA,NA,NA,NA,"no",0,4.671,6.215
"1055","smother","surgery",19,1,16,8.245,7,0.175,0,0,1,1.045,NA,NA,NA,NA,"surgery",1,3.207,6.055
"1055","calf","annoy",9,1,49,45.151,31,0.775,1,0,0,1.206,NA,NA,NA,NA,"no",0,4.443,6.021
"1055","prison","loaf",2,1,71,7.157,35,0.875,1,0,0,1.117,NA,NA,NA,NA,"loaf",1,1.757,5.877
"1055","want","ascent",5,1,26,9.916,19,0.475,0,1,0,1.318,NA,NA,NA,NA,"ascent",1,3.183,6.12
"1055","grip","beach",38,1,32,12.78,24,0.6,0,1,0,1.301,NA,NA,NA,NA,"beach",1,4.901,7.214
"1055","remind","foam",22,1,20,3.116,14,0.35,1,1,1,1.624,NA,NA,NA,NA,"no",0,2.454,4.126
"1055","bullet","walkway",26,1,20,12.573,13,0.325,1,1,1,1.198,NA,NA,NA,NA,"no",0,4.966,7.119
"1055","mill","feast",36,1,37,4.278,29,0.725,1,0,0,2.749,NA,NA,NA,NA,"no",0,4.474,6.383
"1055","glue","force",15,1,15,4.11,3,0.075,0,0,1,7.631,NA,NA,NA,NA,"force",1,4.932,6.973
"1055","plant","worm",21,1,79,2.814,39,0.975,1,0,0,1.06,NA,NA,NA,NA,"tree",0,10.346,12.158
"1055","forest","knob",33,1,26,4.91,20,0.5,1,1,1,3.526,NA,NA,NA,NA,"knob",1,5.541,7.694
"1055","anger","decay",23,1,52,13.313,32,0.8,1,0,0,13.139,NA,NA,NA,NA,"decay",1,2.949,5.525
"1055","biology","temper",6,1,17,3.02,10,0.25,0,0,1,8.072,NA,NA,NA,NA,"temper",1,4.397,7.421
"1055","visit","glove",25,1,36,3.277,28,0.7,1,0,0,0.799,NA,NA,NA,NA,"place",0,7.646,12.607
"1055","find","clown",27,1,16,3.376,5,0.125,0,1,0,8.109,NA,NA,NA,NA,"clown",1,3.805,6.014
"1055","pea","bathtub",7,1,22,3.991,16,0.4,0,1,0,1.604,NA,NA,NA,NA,"bathtub",1,5.057,11.924
"1055","pork","emperor",11,1,74,3.252,37,0.925,1,0,0,0.872,NA,NA,NA,NA,"no",0,3.277,4.977
"1055","bacon","feud",31,1,17,4.671,9,0.225,0,0,1,2.128,NA,NA,NA,NA,"fued",0,3.56,5.797
"1055","risk","zero",17,1,36,3.508,27,0.675,0,1,0,1.07,NA,NA,NA,NA,"zero",1,2.494,7.166
"1055","nerve","bumper",3,1,22,4.171,15,0.375,0,1,0,5.869,NA,NA,NA,NA,"no",0,6.929,8.63
"1055","bleach","ruin",4,1,100,6.454,40,1,1,1,1,1.341,NA,NA,NA,NA,"ruin",1,2.182,4.358
"1055","knock","otter",40,1,18,3.293,12,0.3,0,0,1,1.526,NA,NA,NA,NA,"otter",1,2.478,4.382
"1055","bias","sirloin",35,1,30,10.637,22,0.55,0,1,0,0.997,NA,NA,NA,NA,"sirloin",1,3.566,6.974
"1055","copy","bedroom",32,1,22,3.797,17,0.425,1,1,1,1.23,NA,NA,NA,NA,"bedroom",1,3.748,7.333
"1055","caring","skirt",13,1,11,4.035,2,0.05,0,0,1,6.829,NA,NA,NA,NA,"skirt",1,3.657,6.336
"1055","rock","milk",16,1,58,3.087,33,0.825,1,1,1,4.216,NA,NA,NA,NA,"milk",1,2.122,7.19
"1732","pork","emperor",18,1,35,2.543,13,0.325,1,0,0,2.463,NA,NA,NA,NA,"mill",0,7.188,12.319
"1732","banner","glide",34,1,48,2.238,34,0.85,0,1,0,0.959,NA,NA,NA,NA,"kite",0,3.382,5.998
"1732","port","cinema",13,1,38,2.839,17,0.425,1,1,1,1.087,NA,NA,NA,NA,"wine",0,4.97,7.071
"1732","bacon","feud",20,1,37,2.791,16,0.4,1,1,1,1.167,NA,NA,NA,NA,"field",0,9.117,11.631
"1732","caring","skirt",26,1,50,4.175,35,0.875,0,1,0,0.959,NA,NA,NA,NA,"loss",0,4.957,6.751
"1732","knock","otter",36,1,34,3.004,9,0.225,1,1,1,1.367,NA,NA,NA,NA,"door",0,6.99,9.583
"1732","shrink","mafia",9,1,34,2.229,10,0.25,1,1,1,1.015,NA,NA,NA,NA,"wrap",0,5.381,8.15
"1732","remind","foam",35,1,35,2.238,12,0.3,1,1,1,1.087,NA,NA,NA,NA,"constant",0,4.427,8.368
"1732","fan","feature",17,1,40,3.071,22,0.55,1,1,1,1.319,NA,NA,NA,NA,"shield",0,3.146,6.174
"1732","capital","figure",25,1,30,2.893,7,0.175,1,0,0,1.119,NA,NA,NA,NA,"city",0,13.755,15.887
"1732","biology","temper",19,1,27,2.637,5,0.125,1,0,0,0.967,NA,NA,NA,NA,"anger",0,5.784,8.439
"1732","copy","bedroom",10,1,46,3.173,30,0.75,0,0,1,1.223,NA,NA,NA,NA,"sheet",0,7.838,10.095
"1732","prison","loaf",16,1,100,3.51,40,1,0,0,1,1.335,NA,NA,NA,NA,"loaf",1,5.43,7.583
"1732","smother","surgery",38,1,38,2.327,19,0.475,0,1,0,1.183,NA,NA,NA,NA,"carry",0,3.869,6.863
"1732","bullet","walkway",30,1,52,4.636,36,0.9,0,1,0,12.511,NA,NA,NA,NA,"cover",0,2.591,23.687
"1732","pea","bathtub",22,1,21,3.599,3,0.075,1,0,0,1.391,NA,NA,NA,NA,"knife",0,4.887,7.28
"1732","bias","sirloin",2,1,22,4.228,4,0.1,1,0,0,1.048,NA,NA,NA,NA,"ransom",0,2.028,7.078
"1732","need","faucet",14,1,38,2.735,18,0.45,1,1,1,1.879,NA,NA,NA,NA,"ant",0,4.337,6.871
"1732","grip","beach",29,1,39,3.471,21,0.525,1,1,1,1.215,NA,NA,NA,NA,"knock",0,18.441,21.183
"1732","link","crisis",6,1,33,2.391,8,0.2,1,1,1,0.975,NA,NA,NA,NA,"mail",0,12.856,16.295
"1732","bleach","ruin",39,1,30,2.471,6,0.15,1,0,0,0.935,NA,NA,NA,NA,"come",0,2.152,4.079
"1732","forest","knob",11,1,46,3.287,31,0.775,0,0,1,1.081,NA,NA,NA,NA,"anger",0,7.787,10.039
"1732","collect","loyalty",23,1,40,2.783,23,0.575,1,1,1,2.029,NA,NA,NA,NA,"bill",0,6.023,8.167
"1732","glue","force",27,1,47,4.015,33,0.825,0,1,0,1.014,NA,NA,NA,NA,"mill",0,3.898,6.022
"1732","nerve","bumper",15,1,44,2.679,29,0.725,0,0,1,1.367,NA,NA,NA,NA,"some",0,9.138,13.56
"1732","want","ascent",28,1,47,3.503,32,0.8,0,0,1,1.335,NA,NA,NA,NA,"need",0,1.962,4.951
"1732","process","joker",31,1,42,2.423,26,0.65,0,0,1,0.976,NA,NA,NA,NA,"knife",0,5.504,7.815
"1732","plant","worm",33,1,36,2.575,14,0.35,1,0,0,1.055,NA,NA,NA,NA,"mill",0,5.798,8.175
"1732","date","laugh",40,1,38,2.151,20,0.5,0,1,0,0.871,NA,NA,NA,NA,"flour",0,1.56,5.615
"1732","risk","zero",5,1,54,2.319,37,0.925,0,1,0,0.983,NA,NA,NA,NA,"dodge",0,10.604,17.711
"1732","fee","chowder",3,1,42,2.767,25,0.625,0,0,1,1.216,NA,NA,NA,NA,"knife",0,5.819,7.919
"1732","rock","milk",7,1,42,2.127,27,0.675,0,1,0,1.199,NA,NA,NA,NA,"prison",0,4.335,11.91
"1732","anger","decay",4,1,65,3.151,38,0.95,0,0,1,1.055,NA,NA,NA,NA,"fee",0,3.922,5.343
"1732","find","clown",24,1,34,2.327,11,0.275,1,0,0,1.022,NA,NA,NA,NA,"need",0,5.72,7.687
"1732","visit","glove",37,1,36,2.671,15,0.375,0,1,0,1.303,NA,NA,NA,NA,"prison",0,3.182,6.847
"1732","calf","annoy",21,1,18,3.479,2,0.05,1,0,0,0.967,NA,NA,NA,NA,"mill",0,2.058,4.983
"1732","replace","roach",1,1,40,2.535,24,0.6,0,1,0,1.207,NA,NA,NA,NA,"want",0,4.378,6.991
"1732","mill","feast",8,1,10,4.316,1,0.025,1,0,0,1.223,NA,NA,NA,NA,"fee",0,4.454,5.72
"1732","chicken","beet",12,1,71,3.295,39,0.975,0,0,1,1.215,NA,NA,NA,NA,"mill",0,3.565,6.182
"1732","climax","saucer",32,1,44,2.943,28,0.7,0,0,1,1.103,NA,NA,NA,NA,"rock",0,7.487,9.863
"1762","risk","zero",3,1,1,2.913,4,0.1,1,0,0,1.157,NA,NA,NA,NA,"reward",0,6.531,8.649
"1762","anger","decay",19,1,100,2.765,39,0.975,0,0,1,0.679,NA,NA,NA,NA,"stool",0,2.586,3.37
"1762","shrink","mafia",24,1,1,2.199,15,0.375,0,1,0,2.177,NA,NA,NA,NA,"wrap",0,1.658,2.232
"1762","copy","bedroom",12,1,1,2.849,10,0.25,1,0,0,0.571,NA,NA,NA,NA,"paste",0,1.697,2.747
"1762","process","joker",21,1,1,3.821,2,0.05,1,0,0,4.55,NA,NA,NA,NA,"server",0,2.001,3.064
"1762","mill","feast",14,1,1,1.904,21,0.525,1,1,1,0.984,NA,NA,NA,NA,"meek",0,2.242,3.667
"1762","bullet","walkway",33,1,1,2.255,20,0.5,0,1,0,0.875,NA,NA,NA,NA,"point",0,2.121,2.805
"1762","banner","glide",9,1,1,1.963,8,0.2,1,0,0,0.837,NA,NA,NA,NA,"flag",0,2.418,3.22
"1762","forest","knob",15,1,1,2.371,13,0.325,1,0,0,0.979,NA,NA,NA,NA,"run",0,2.052,3.146
"1762","chicken","beet",26,1,100,2.631,40,1,0,0,1,0.813,NA,NA,NA,NA,"beet",1,3.579,4.408
"1762","glue","force",22,1,1,1.683,23,0.575,1,1,1,0.719,NA,NA,NA,NA,"page",0,3.786,4.548
"1762","remind","foam",40,1,1,2.435,28,0.7,0,0,1,0.853,NA,NA,NA,NA,"shrimp",0,2.723,4.123
"1762","pork","emperor",10,1,100,2.491,38,0.95,0,0,1,1.197,NA,NA,NA,NA,"ex..something executor",0,3.249,78.547
"1762","collect","loyalty",13,1,1,3.679,26,0.65,1,1,1,0.525,NA,NA,NA,NA,"balls",0,2.752,3.424
"1762","pea","bathtub",2,1,100,2.191,36,0.9,0,0,1,1.509,NA,NA,NA,NA,"bathtub",1,1.403,3.042
"1762","plant","worm",16,1,23,10.558,31,0.775,0,1,0,2.786,NA,NA,NA,NA,"worm",1,3.711,4.179
"1762","prison","loaf",20,1,1,2.231,7,0.175,1,0,0,0.971,NA,NA,NA,NA,"cell",0,1.585,2.212
"1762","smother","surgery",27,1,77,4.83,34,0.85,0,0,1,7.871,NA,NA,NA,NA,"surgery",1,2.545,10.466
"1762","bias","sirloin",23,1,72,3.375,33,0.825,0,0,1,0.688,NA,NA,NA,NA,"sirloin",1,1.386,4.616
"1762","rock","milk",30,1,1,1.909,19,0.475,0,1,0,0.673,NA,NA,NA,NA,"milk",1,1.771,2.473
"1762","visit","glove",17,1,1,2.231,22,0.55,1,1,1,0.735,NA,NA,NA,NA,"frame",0,1.523,2.435
"1762","caring","skirt",38,1,1,2.271,24,0.6,1,1,1,0.673,NA,NA,NA,NA,"can",0,3.113,3.899
"1762","port","cinema",37,1,1,4.573,1,0.025,1,1,1,1.839,NA,NA,NA,NA,"lucy",0,1.784,2.715
"1762","fan","feature",11,1,1,7.181,16,0.4,0,1,0,0.727,NA,NA,NA,NA,"blade",0,1.549,4.722
"1762","bacon","feud",35,1,1,2.191,14,0.35,0,1,0,1.157,NA,NA,NA,NA,"king",0,5.952,8.929
"1762","want","ascent",36,1,1,2.325,11,0.275,1,0,0,0.727,NA,NA,NA,NA,"monkey",0,2.892,3.86
"1762","capital","figure",39,1,1,2.137,5,0.125,1,1,1,0.987,NA,NA,NA,NA,"fight",0,1.477,2.224
"1762","calf","annoy",8,1,27,2.419,32,0.8,0,1,0,0.703,NA,NA,NA,NA,"laugh",0,3.24,4.122
"1762","find","clown",32,1,1,1.754,25,0.625,1,1,1,0.617,NA,NA,NA,NA,"truck",0,3.771,4.555
"1762","replace","roach",25,1,1,3.906,3,0.075,1,0,0,1.159,NA,NA,NA,NA,"log",0,1.39,2.051
"1762","grip","beach",31,1,1,2.594,29,0.725,0,0,1,0.694,NA,NA,NA,NA,"beach",1,1.54,2.442
"1762","link","crisis",5,1,3,2.731,30,0.75,0,1,0,1.331,NA,NA,NA,NA,"bleach",0,25.838,26.669
"1762","climax","saucer",4,1,100,2.583,35,0.875,0,0,1,1.417,NA,NA,NA,NA,"saucer",1,1.447,2.34
"1762","bleach","ruin",28,1,1,3.021,6,0.15,1,1,1,2.397,NA,NA,NA,NA,"road",0,3.753,6.076
"1762","knock","otter",18,1,1,2.107,12,0.3,1,0,0,1.128,NA,NA,NA,NA,"rock",0,1.682,2.63
"1762","need","faucet",34,1,1,2.395,17,0.425,0,1,0,1.049,NA,NA,NA,NA,"brush",0,1.186,4.776
"1762","nerve","bumper",6,1,1,2.959,27,0.675,1,1,1,1.385,NA,NA,NA,NA,"ending",0,1.732,2.518
"1762","fee","chowder",1,1,1,2.717,18,0.45,0,1,0,1.095,NA,NA,NA,NA,"sports",0,2.667,3.595
"1762","date","laugh",29,1,100,2.151,37,0.925,0,0,1,1.167,NA,NA,NA,NA,"raisin",0,2.288,4.913
"1762","biology","temper",7,1,1,2.193,9,0.225,1,0,0,0.743,NA,NA,NA,NA,"microscope",0,1.527,3.279
"1803","grip","beach",36,1,100,9.647,38,0.95,1,1,1,1.247,NA,NA,NA,NA,"beach",1,3.199,7.018
"1803","date","laugh",40,1,72,6.143,35,0.875,1,1,1,0.999,NA,NA,NA,NA,"laugh",1,2.484,6.629
"1803","collect","loyalty",24,1,1,15.527,16,0.4,1,0,0,0.599,NA,NA,NA,NA,"skip",0,28.37,42.074
"1803","prison","loaf",34,1,100,5.367,40,1,1,1,1,1.624,NA,NA,NA,NA,"loaf",1,2.409,6.502
"1803","process","joker",8,1,1,6.591,17,0.425,1,0,0,0.734,NA,NA,NA,NA,"skip",0,13.121,15.94
"1803","link","crisis",16,1,1,1.983,22,0.55,0,0,1,0.719,NA,NA,NA,NA,"crisis",1,12.341,16.165
"1803","remind","foam",1,1,1,2.039,25,0.625,0,0,1,0.798,NA,NA,NA,NA,"skip",0,2.449,5.294
"1803","need","faucet",15,1,1,4.047,7,0.175,0,1,0,1.276,NA,NA,NA,NA,"skip",0,7.898,10.573
"1803","nerve","bumper",18,1,1,5.015,3,0.075,0,1,0,0.83,NA,NA,NA,NA,"skip",0,10.853,13.26
"1803","chicken","beet",23,1,1,19.031,6,0.15,0,1,0,0.83,NA,NA,NA,NA,"beet",1,3.669,5.95
"1803","copy","bedroom",26,1,25,10.375,33,0.825,1,0,0,1.303,NA,NA,NA,NA,"skip",0,8.881,11.037
"1803","want","ascent",35,1,1,1.768,27,0.675,0,0,1,0.814,NA,NA,NA,NA,"skip",0,6.537,9.702
"1803","pea","bathtub",2,1,1,2.231,21,0.525,0,0,1,0.679,NA,NA,NA,NA,"bathtub",1,4.254,8.558
"1803","forest","knob",29,1,1,2.079,23,0.575,0,0,1,0.703,NA,NA,NA,NA,"knob",1,3.387,6.478
"1803","mill","feast",25,1,2,2.983,31,0.775,1,0,0,1.423,NA,NA,NA,NA,"skip",0,2.334,4.374
"1803","fan","feature",27,1,1,2.615,20,0.5,0,0,1,0.767,NA,NA,NA,NA,"skip",0,8.819,10.966
"1803","visit","glove",30,1,1,6.543,8,0.2,0,1,0,1.072,NA,NA,NA,NA,"skip",0,13.461,17.773
"1803","shrink","mafia",22,1,1,6.063,11,0.275,1,0,0,1.159,NA,NA,NA,NA,"skip",0,3.078,5.366
"1803","plant","worm",21,1,1,2.799,26,0.65,0,0,1,0.695,NA,NA,NA,NA,"worm",1,3.791,6.662
"1803","rock","milk",6,1,1,7.663,5,0.125,0,1,0,1.064,NA,NA,NA,NA,"skip",0,9.646,15.845
"1803","find","clown",3,1,1,3.567,10,0.25,0,1,0,1.839,NA,NA,NA,NA,"skip",0,2.963,8.566
"1803","risk","zero",4,1,100,20.909,37,0.925,1,1,1,8.589,NA,NA,NA,NA,"zero",1,10.05,13.246
"1803","bleach","ruin",37,1,1,16.086,13,0.325,1,0,0,1.095,NA,NA,NA,NA,"ruin",1,2.929,10.213
"1803","calf","annoy",17,1,1,2.015,24,0.6,0,0,1,0.711,NA,NA,NA,NA,"annoy",1,3.132,9.87
"1803","glue","force",9,1,1,6.543,2,0.05,0,1,0,2.023,NA,NA,NA,NA,"skip",0,2.133,5.766
"1803","fee","chowder",5,1,1,7.712,18,0.45,1,0,0,0.838,NA,NA,NA,NA,"skip",0,4.571,8.158
"1803","smother","surgery",14,1,21,18.95,32,0.8,1,1,1,1.223,NA,NA,NA,NA,"skip",0,3.861,7.422
"1803","bias","sirloin",28,1,25,5.255,34,0.85,1,1,1,5.207,NA,NA,NA,NA,"skip",0,2.386,6.358
"1803","bullet","walkway",13,1,1,4.6,30,0.75,1,1,1,0.727,NA,NA,NA,NA,"skip",0,13.172,16.628
"1803","banner","glide",33,1,1,2.487,4,0.1,0,1,0,3.911,NA,NA,NA,NA,"skip",0,8.058,11.478
"1803","replace","roach",32,1,1,3.127,14,0.35,1,0,0,1.247,NA,NA,NA,NA,"skip",0,4.645,8.18
"1803","anger","decay",20,1,100,5.758,39,0.975,1,1,1,1.071,NA,NA,NA,NA,"decay",1,8.311,11.702
"1803","capital","figure",11,1,1,8.247,12,0.3,1,0,0,1.263,NA,NA,NA,NA,"skip",0,2.43,5.35
"1803","pork","emperor",38,1,1,2.151,29,0.725,1,1,1,0.839,NA,NA,NA,NA,"power",0,7.458,11.373
"1803","bacon","feud",19,1,1,2.91,19,0.475,0,0,1,2.863,NA,NA,NA,NA,"crisis",0,31.066,35.529
"1803","knock","otter",7,1,1,3.617,15,0.375,1,0,0,1.285,NA,NA,NA,NA,"skip",0,38.02,41.907
"1803","climax","saucer",12,1,1,13.182,9,0.225,0,1,0,0.839,NA,NA,NA,NA,"feature",0,17.391,21.656
"1803","biology","temper",10,1,74,11.111,36,0.9,1,1,1,0.912,NA,NA,NA,NA,"temper",1,4.663,10.774
"1803","caring","skirt",39,1,1,11.046,1,0.025,0,1,0,2.775,NA,NA,NA,NA,"bumper",0,34.249,38.489
"1803","port","cinema",31,1,1,2.072,28,0.7,0,0,1,0.888,NA,NA,NA,NA,"skip",0,13.662,17.996
"1818","capital","figure",27,1,59,6.744,35,0.875,0,0,1,0.678,NA,NA,NA,NA,"collect",0,9.969,12.109
"1818","want","ascent",31,1,6,3.437,21,0.525,0,1,0,0.776,NA,NA,NA,NA,"soap",0,2.974,3.837
"1818","fee","chowder",36,1,1,2.989,8,0.2,1,0,0,0.636,NA,NA,NA,NA,"dirt",0,3.104,12.173
"1818","visit","glove",29,1,1,2.705,11,0.275,0,1,0,0.581,NA,NA,NA,NA,"SKIP",0,1.812,2.63
"1818","pork","emperor",7,1,29,2.05,31,0.775,0,0,1,0.643,NA,NA,NA,NA,"soda",0,3.637,6.255
"1818","nerve","bumper",37,1,9,5.079,24,0.6,0,1,0,8.453,NA,NA,NA,NA,"agony",0,3.574,5.11
"1818","climax","saucer",30,1,39,6.516,33,0.825,0,0,1,0.664,NA,NA,NA,NA,"anger",0,3.972,5.775
"1818","bleach","ruin",5,1,1,7.18,1,0.025,1,0,0,11.604,NA,NA,NA,NA,"SKIP",0,2.375,3.439
"1818","mill","feast",4,1,1,4.96,20,0.5,1,1,1,0.588,NA,NA,NA,NA,"corn",0,1.952,2.855
"1818","fan","feature",21,1,1,2.062,4,0.1,1,0,0,0.817,NA,NA,NA,NA,"SKIP",0,2.497,3.332
"1818","risk","zero",28,1,100,2.564,38,0.95,0,0,1,0.671,NA,NA,NA,NA,"zero",1,2.646,3.819
"1818","shrink","mafia",35,1,23,2.314,29,0.725,0,1,0,0.717,NA,NA,NA,NA,"SKIP",0,4.337,5.312
"1818","smother","surgery",24,1,33,3.051,32,0.8,0,1,0,0.557,NA,NA,NA,NA,"small",0,2.487,5.141
"1818","chicken","beet",13,1,1,1.961,12,0.3,1,1,1,1.308,NA,NA,NA,NA,"worm",0,2.118,2.838
"1818","glue","force",3,1,8,2.469,23,0.575,0,1,0,0.794,NA,NA,NA,NA,"force",1,3.8,8.014
"1818","calf","annoy",15,1,12,2.658,25,0.625,0,1,0,0.721,NA,NA,NA,NA,"SKIP",0,3.828,4.701
"1818","collect","loyalty",10,1,100,4.938,39,0.975,0,0,1,0.582,NA,NA,NA,NA,"Equity",0,17.845,26.061
"1818","copy","bedroom",17,1,1,2.575,6,0.15,1,0,0,0.97,NA,NA,NA,NA,"paper",0,1.799,2.668
"1818","port","cinema",16,1,1,1.773,17,0.425,1,1,1,0.634,NA,NA,NA,NA,"commerce",0,4.069,6.04
"1818","bacon","feud",20,1,1,1.923,14,0.35,1,1,1,1.004,NA,NA,NA,NA,"worm",0,2.493,3.207
"1818","bias","sirloin",2,1,1,2.1,13,0.325,1,1,1,0.621,NA,NA,NA,NA,"SKIP",0,1.554,2.293
"1818","grip","beach",6,1,1,5.03,5,0.125,1,0,0,0.483,NA,NA,NA,NA,"SKIP",0,2.534,3.493
"1818","find","clown",8,1,1,1.878,18,0.45,1,1,1,0.685,NA,NA,NA,NA,"town",0,5.298,6.02
"1818","link","crisis",38,1,1,1.887,19,0.475,1,1,1,0.554,NA,NA,NA,NA,"SKIP",0,3.592,4.336
"1818","replace","roach",11,1,17,3.023,27,0.675,0,1,0,0.749,NA,NA,NA,NA,"SKIP",0,8.925,9.634
"1818","anger","decay",33,1,100,2.069,40,1,0,0,1,0.626,NA,NA,NA,NA,"decay",1,1.695,2.831
"1818","forest","knob",9,1,1,2.489,7,0.175,1,0,0,0.591,NA,NA,NA,NA,"dirt",0,2.23,3.042
"1818","date","laugh",19,1,1,4.326,3,0.075,1,0,0,0.89,NA,NA,NA,NA,"SKIP",0,2.656,3.462
"1818","need","faucet",39,1,1,2.921,10,0.25,1,0,0,0.865,NA,NA,NA,NA,"acquire",0,9.213,11.236
"1818","process","joker",23,1,1,1.968,15,0.375,1,1,1,0.561,NA,NA,NA,NA,"copy",0,2.709,3.526
"1818","knock","otter",22,1,1,1.855,16,0.4,1,1,1,0.524,NA,NA,NA,NA,"tree",0,3.894,4.877
"1818","bullet","walkway",25,1,57,3.101,34,0.85,0,0,1,0.783,NA,NA,NA,NA,"walkway",1,3.772,16.828
"1818","rock","milk",18,1,1,2.079,9,0.225,1,0,0,0.71,NA,NA,NA,NA,"bottom",0,1.776,2.808
"1818","caring","skirt",12,1,1,3.824,2,0.05,1,0,0,0.902,NA,NA,NA,NA,"SKIP",0,1.602,2.618
"1818","prison","loaf",34,1,14,1.981,26,0.65,1,1,1,0.526,NA,NA,NA,NA,"trap",0,2.47,3.275
"1818","pea","bathtub",26,1,79,3.461,37,0.925,0,0,1,0.467,NA,NA,NA,NA,"SKIP",0,2.076,2.828
"1818","biology","temper",40,1,69,3.477,36,0.9,0,0,1,0.767,NA,NA,NA,NA,"anger",0,5.492,6.306
"1818","banner","glide",14,1,7,3.789,22,0.55,0,1,0,0.89,NA,NA,NA,NA,"ripple",0,3.548,6.907
"1818","remind","foam",1,1,25,3.881,30,0.75,0,1,0,0.675,NA,NA,NA,NA,"SKIP",0,1.61,2.529
"1818","plant","worm",32,1,18,1.978,28,0.7,0,0,1,0.533,NA,NA,NA,NA,"worm",1,1.896,2.683
"2026","date","laugh",31,1,78,3.236,12,0.3,1,0,0,1.461,NA,NA,NA,NA,"laugh",1,24.243,26.215
"2026","collect","loyalty",32,1,75,3.275,8,0.2,1,0,0,1.355,NA,NA,NA,NA,"loyalty",1,11.982,14.573
"2026","mill","feast",11,1,61,3.109,2,0.05,1,1,1,1.953,NA,NA,NA,NA,"feast",1,98.944,101.378
"2026","chicken","beet",17,1,84,3.557,24,0.6,0,0,1,1.508,NA,NA,NA,NA,"beet",1,15.704,17.196
"2026","bias","sirloin",3,1,99,3.395,40,1,0,1,0,1.33,NA,NA,NA,NA,"sirloin",1,49.421,51.853
"2026","rock","milk",4,1,71,2.975,3,0.075,1,1,1,1.269,NA,NA,NA,NA,"milk",1,29.066,31.103
"2026","find","clown",5,1,81,5.784,15,0.375,1,1,1,2.877,NA,NA,NA,NA,"clown",1,11.718,13.703
"2026","anger","decay",16,1,88,4.281,32,0.8,0,0,1,1.93,NA,NA,NA,NA,"decay",1,10.896,12.591
"2026","prison","loaf",38,1,86,2.922,31,0.775,0,0,1,1.411,NA,NA,NA,NA,"loaf",1,11.251,12.516
"2026","pea","bathtub",18,1,76,2.474,10,0.25,1,1,1,1.496,NA,NA,NA,NA,"bathtub",1,5.481,8.192
"2026","forest","knob",27,1,81,8.263,18,0.45,1,0,0,2.094,NA,NA,NA,NA,"knob",1,4.973,7.732
"2026","bacon","feud",2,1,77,5.582,11,0.275,1,0,0,3.539,NA,NA,NA,NA,"feud",1,4.196,5.654
"2026","bleach","ruin",36,1,81,2.61,17,0.425,1,1,1,1.513,NA,NA,NA,NA,"ruin",1,8.858,9.87
"2026","caring","skirt",33,1,91,4.208,35,0.875,0,1,0,1.286,NA,NA,NA,NA,"skirt",1,11.708,13.35
"2026","banner","glide",23,1,85,2.737,27,0.675,0,1,0,12.786,NA,NA,NA,NA,"glide",1,5.402,7.05
"2026","bullet","walkway",9,1,91,3.657,34,0.85,0,1,0,1.357,NA,NA,NA,NA,"runway",0,5.139,6.746
"2026","process","joker",26,1,75,2.896,9,0.225,1,0,0,1.133,NA,NA,NA,NA,"joker",1,4.503,6.437
"2026","shrink","mafia",28,1,73,2.597,6,0.15,1,1,1,1.818,NA,NA,NA,NA,"mafia",1,7.715,9.098
"2026","grip","beach",34,1,84,3.33,23,0.575,1,1,1,1.531,NA,NA,NA,NA,"beach",1,3.495,4.686
"2026","want","ascent",13,1,95,4.362,37,0.925,0,0,1,1.901,NA,NA,NA,NA,"ascent",1,5.669,7.164
"2026","capital","figure",30,1,85,2.863,28,0.7,0,1,0,1.389,NA,NA,NA,NA,"figure",1,6.322,8.118
"2026","link","crisis",40,1,89,4.487,33,0.825,0,1,0,1.766,NA,NA,NA,NA,"crisis",1,17.027,18.766
"2026","copy","bedroom",22,1,81,2.947,16,0.4,1,1,1,1.39,NA,NA,NA,NA,"bedroom",1,20.701,27.211
"2026","remind","foam",35,1,97,3.592,39,0.975,0,0,1,1.21,NA,NA,NA,NA,"foam",1,9.437,12.246
"2026","pork","emperor",7,1,85,4.991,26,0.65,0,0,1,1.479,NA,NA,NA,NA,"emperor",1,5.177,10.314
"2026","port","cinema",6,1,92,3.204,36,0.9,0,0,1,1.855,NA,NA,NA,NA,"cinema",1,8.515,11.72
"2026","nerve","bumper",24,1,71,3.047,5,0.125,1,0,0,1.574,NA,NA,NA,NA,"bumper",1,22.261,24.909
"2026","replace","roach",19,1,71,2.82,4,0.1,1,0,0,1.936,NA,NA,NA,NA,"roach",1,10.601,13.687
"2026","glue","force",8,1,95,3.662,38,0.95,0,1,0,1.35,NA,NA,NA,NA,"force",1,6.014,8.085
"2026","smother","surgery",21,1,80,2.53,14,0.35,1,0,0,1.175,NA,NA,NA,NA,"surgery",1,5.485,8.728
"2026","calf","annoy",20,1,81,2.743,19,0.475,0,1,0,1.286,NA,NA,NA,NA,"annoy",1,7.176,10.344
"2026","risk","zero",1,1,85,12.363,25,0.625,0,0,1,11.763,NA,NA,NA,NA,"zero",1,10.355,12.91
"2026","fee","chowder",39,1,86,3.939,29,0.725,0,0,1,1.955,NA,NA,NA,NA,"chowder",1,23.038,25.659
"2026","fan","feature",25,1,73,7.163,7,0.175,1,0,0,2.539,NA,NA,NA,NA,"feature",1,6.466,15.617
"2026","visit","glove",10,1,83,3.029,22,0.55,1,1,1,1.425,NA,NA,NA,NA,"glove",1,7.461,9.543
"2026","biology","temper",29,1,81,2.768,21,0.525,0,1,0,1.468,NA,NA,NA,NA,"temper",1,3.434,6.131
"2026","need","faucet",12,1,86,4.052,30,0.75,0,0,1,2.197,NA,NA,NA,NA,"faucet",1,5.416,8.104
"2026","knock","otter",37,1,61,3.929,1,0.025,1,1,1,1.843,NA,NA,NA,NA,"otter",1,4.858,6.673
"2026","plant","worm",15,1,78,2.688,13,0.325,1,0,0,1.221,NA,NA,NA,NA,"worm",1,3.199,5.449
"2026","climax","saucer",14,1,81,2.516,20,0.5,0,1,0,0.989,NA,NA,NA,NA,"saucer",1,6.677,9.541
"2163","biology","temper",12,1,28,2.823,17,0.425,0,0,1,1.015,NA,NA,NA,NA,"anger",0,3.269,5.466
"2163","banner","glide",19,1,25,2.342,10,0.25,0,1,0,1.051,NA,NA,NA,NA,"SKIP",0,3.008,5.267
"2163","date","laugh",6,1,78,3.611,40,1,1,1,1,1.367,NA,NA,NA,NA,"laughter",0,2.324,8.251
"2163","climax","saucer",13,1,72,3.659,37,0.925,1,1,1,1.035,NA,NA,NA,NA,"fence",0,2.794,4.995
"2163","chicken","beet",32,1,28,36.95,14,0.35,1,0,0,1.139,NA,NA,NA,NA,"SKIP",0,8.477,10.651
"2163","fan","feature",26,1,24,2.359,7,0.175,0,1,0,1.171,NA,NA,NA,NA,"SKIP",0,2.193,4.407
"2163","port","cinema",31,1,44,2.455,30,0.75,1,1,1,0.971,NA,NA,NA,NA,"wall",0,2.769,4.743
"2163","shrink","mafia",3,1,63,1.859,34,0.85,1,1,1,0.843,NA,NA,NA,NA,"ruin",0,4.002,6.043
"2163","link","crisis",28,1,73,3.011,38,0.95,1,1,1,2.295,NA,NA,NA,NA,"SKIP",0,1.82,3.951
"2163","visit","glove",37,1,40,2.295,28,0.7,0,0,1,1.107,NA,NA,NA,NA,"SKIP",0,1.268,3.895
"2163","need","faucet",14,1,28,2.131,15,0.375,1,0,0,1.271,NA,NA,NA,NA,"SKIP",0,1.461,3.684
"2163","plant","worm",17,1,34,5.502,19,0.475,1,0,0,1.115,NA,NA,NA,NA,"beach",0,4.737,7.607
"2163","fee","chowder",15,1,34,2.759,20,0.5,0,0,1,2.703,NA,NA,NA,NA,"castle",0,6.6,8.959
"2163","rock","milk",27,1,26,1.927,12,0.3,0,0,1,0.871,NA,NA,NA,NA,"lost",0,9.296,11.675
"2163","bullet","walkway",23,1,16,4.671,1,0.025,0,1,0,0.911,NA,NA,NA,NA,"SKIP",0,2.565,4.775
"2163","bleach","ruin",4,1,65,3.115,35,0.875,1,1,1,2.367,NA,NA,NA,NA,"ruin",1,2.221,4.468
"2163","nerve","bumper",40,1,24,1.863,9,0.225,0,0,1,1.079,NA,NA,NA,NA,"anger",0,3.081,5.159
"2163","pork","emperor",16,1,36,2.483,23,0.575,1,0,0,1.583,NA,NA,NA,NA,"fast",0,3.512,5.356
"2163","glue","force",21,1,27,1.839,13,0.325,0,0,1,0.863,NA,NA,NA,NA,"SKIP",0,2.813,4.795
"2163","copy","bedroom",9,1,75,4.538,39,0.975,1,1,1,1.911,NA,NA,NA,NA,"SKIP",0,1.713,3.831
"2163","knock","otter",33,1,32,2.555,18,0.45,0,0,1,2.467,NA,NA,NA,NA,"saucer",0,1.418,3.891
"2163","risk","zero",11,1,21,1.895,4,0.1,0,1,0,1.371,NA,NA,NA,NA,"break",0,3.509,6.203
"2163","calf","annoy",35,1,36,2.555,22,0.55,1,0,0,5.695,NA,NA,NA,NA,"annoying",0,3.755,7.367
"2163","smother","surgery",5,1,61,2.902,32,0.8,1,0,0,1.159,NA,NA,NA,NA,"break",0,2.393,6.86
"2163","anger","decay",29,1,57,14.07,31,0.775,1,0,0,13.862,NA,NA,NA,NA,"biology",0,3.421,9.107
"2163","collect","loyalty",20,1,23,2.315,6,0.15,0,1,0,1.051,NA,NA,NA,NA,"saucer",0,4.265,6.747
"2163","remind","foam",25,1,23,2.431,5,0.125,0,1,0,1.799,NA,NA,NA,NA,"SKIP",0,1.941,4.215
"2163","pea","bathtub",24,1,36,2.395,24,0.6,0,0,1,1.931,NA,NA,NA,NA,"bedroom",0,3.269,6.039
"2163","want","ascent",38,1,17,2.102,2,0.05,0,1,0,1.178,NA,NA,NA,NA,"SKIP",0,1.652,7.259
"2163","bacon","feud",22,1,28,4.323,16,0.4,1,0,0,1.087,NA,NA,NA,NA,"water",0,1.368,10.491
"2163","replace","roach",2,1,41,1.695,29,0.725,1,1,1,2.795,NA,NA,NA,NA,"SKIP",0,1.66,3.999
"2163","grip","beach",10,1,34,2.223,21,0.525,0,0,1,0.971,NA,NA,NA,NA,"handle",0,2.302,5.239
"2163","bias","sirloin",30,1,24,2.075,8,0.2,0,1,0,1.027,NA,NA,NA,NA,"fence",0,2.485,4.655
"2163","process","joker",34,1,40,2.423,26,0.65,1,0,0,1.695,NA,NA,NA,NA,"castle",0,5.109,7.412
"2163","find","clown",36,1,21,2.635,3,0.075,0,1,0,1.08,NA,NA,NA,NA,"SKIP",0,1.834,6.624
"2163","prison","loaf",39,1,69,3.774,36,0.9,1,1,1,0.952,NA,NA,NA,NA,"bread",0,2.234,4.216
"2163","caring","skirt",7,1,40,2.339,27,0.675,0,0,1,1.767,NA,NA,NA,NA,"joy",0,2.808,4.799
"2163","forest","knob",1,1,62,2.675,33,0.825,1,1,1,1.527,NA,NA,NA,NA,"grain",0,4.209,6.195
"2163","mill","feast",8,1,26,2.319,11,0.275,0,1,0,1.471,NA,NA,NA,NA,"fork",0,3.676,5.662
"2163","capital","figure",18,1,38,4.511,25,0.625,1,0,0,2.951,NA,NA,NA,NA,"building",0,2.343,9.224
"2237","remind","foam",12,1,1,2.055,29,0.725,1,1,1,0.864,NA,NA,NA,NA,"skip",0,12.144,16.674
"2237","plant","worm",9,1,1,2.394,21,0.525,0,0,1,0.864,NA,NA,NA,NA,"worm",1,1.909,3.551
"2237","visit","glove",37,1,1,3.528,7,0.175,0,1,0,0.776,NA,NA,NA,NA,"skip",0,3.198,5.543
"2237","fee","chowder",20,1,1,3.216,3,0.075,0,1,0,1.191,NA,NA,NA,NA,"skip",0,3.613,5.712
"2237","fan","feature",2,1,1,4.783,1,0.025,0,1,0,1.207,NA,NA,NA,NA,"skip",0,12.053,14.302
"2237","pea","bathtub",7,1,30,11.176,37,0.925,1,1,1,0.832,NA,NA,NA,NA,"bathtub",1,3.406,9.327
"2237","rock","milk",8,1,30,6.528,36,0.9,1,1,1,1.68,NA,NA,NA,NA,"milk",1,1.918,3.967
"2237","grip","beach",17,1,1,4.96,6,0.15,0,1,0,1.439,NA,NA,NA,NA,"skip",0,3.053,4.991
"2237","risk","zero",28,1,1,2.64,28,0.7,0,0,1,0.848,NA,NA,NA,NA,"zero",1,12.47,15.713
"2237","prison","loaf",22,1,1,3.207,26,0.65,0,0,1,0.887,NA,NA,NA,NA,"loaf",1,3.405,5.399
"2237","date","laugh",26,1,5,12.902,31,0.775,1,0,0,0.896,NA,NA,NA,NA,"skip",0,2.549,4.591
"2237","anger","decay",24,1,1,2.871,13,0.325,1,0,0,1.159,NA,NA,NA,NA,"skip",0,2.229,4.135
"2237","capital","figure",35,1,1,5.679,12,0.3,1,0,0,1.087,NA,NA,NA,NA,"skip",0,1.822,3.511
"2237","copy","bedroom",4,1,1,3.534,9,0.225,0,1,0,0.767,NA,NA,NA,NA,"skip",0,2.87,4.511
"2237","climax","saucer",6,1,50,11.446,40,1,1,1,1,19.367,NA,NA,NA,NA,"saucer",1,2.124,4.078
"2237","bullet","walkway",3,1,10,11.072,33,0.825,1,1,1,1.104,NA,NA,NA,NA,"sidewalk",0,2.006,4.928
"2237","find","clown",16,1,1,2.182,27,0.675,0,0,1,0.959,NA,NA,NA,NA,"skip",0,2.542,4.473
"2237","process","joker",40,1,1,8.166,20,0.5,0,0,1,1.452,NA,NA,NA,NA,"skip",0,2.557,4.447
"2237","collect","loyalty",21,1,1,2.136,22,0.55,0,0,1,0.76,NA,NA,NA,NA,"skip",0,1.877,3.751
"2237","pork","emperor",15,1,35,10.191,39,0.975,1,1,1,0.944,NA,NA,NA,NA,"emporer",0,1.886,4.448
"2237","banner","glide",30,1,1,4.96,19,0.475,0,0,1,1.536,NA,NA,NA,NA,"glide",1,4.501,6.014
"2237","nerve","bumper",14,1,1,2.774,24,0.6,0,0,1,1.031,NA,NA,NA,NA,"skip",0,2.133,3.943
"2237","caring","skirt",36,1,1,5.102,2,0.05,0,1,0,1.342,NA,NA,NA,NA,"skip",0,1.831,3.552
"2237","mill","feast",23,1,1,2.863,18,0.45,1,0,0,0.992,NA,NA,NA,NA,"skip",0,3.893,5.703
"2237","calf","annoy",19,1,1,7.04,30,0.75,1,1,1,0.847,NA,NA,NA,NA,"annoy",1,1.677,4.119
"2237","knock","otter",5,1,1,1.872,23,0.575,0,0,1,1.856,NA,NA,NA,NA,"skip",0,2.158,4.08
"2237","smother","surgery",31,1,1,5.76,5,0.125,0,1,0,1.119,NA,NA,NA,NA,"skip",0,2.901,6.207
"2237","bleach","ruin",38,1,10,11.447,34,0.85,1,1,1,0.792,NA,NA,NA,NA,"skip",0,2.829,5.015
"2237","want","ascent",18,1,1,4.28,10,0.25,0,1,0,0.935,NA,NA,NA,NA,"skip",0,2.221,4.199
"2237","bias","sirloin",13,1,1,4.888,25,0.625,0,0,1,0.615,NA,NA,NA,NA,"skip",0,31.15,32.863
"2237","link","crisis",33,1,35,24.775,38,0.95,1,0,0,2.182,NA,NA,NA,NA,"frantic",0,2.637,4.999
"2237","need","faucet",1,1,1,2.871,4,0.1,0,1,0,1.44,NA,NA,NA,NA,"skip",0,2.029,3.847
"2237","bacon","feud",11,1,1,5.696,14,0.35,1,0,0,0.672,NA,NA,NA,NA,"skip",0,6.462,8.144
"2237","forest","knob",25,1,1,6.759,15,0.375,1,0,0,4.168,NA,NA,NA,NA,"skip",0,2.846,4.72
"2237","replace","roach",27,1,1,3.648,17,0.425,1,0,0,1.04,NA,NA,NA,NA,"skip",0,1.838,3.56
"2237","port","cinema",34,1,20,8.136,35,0.875,1,1,1,2.199,NA,NA,NA,NA,"skip",0,2.286,4.328
"2237","biology","temper",32,1,1,6.976,8,0.2,0,1,0,1.143,NA,NA,NA,NA,"skip",0,6.094,7.744
"2237","chicken","beet",39,1,10,15.454,32,0.8,1,1,1,0.967,NA,NA,NA,NA,"beet",1,2.79,4.096
"2237","shrink","mafia",29,1,1,2.911,11,0.275,1,0,0,0.696,NA,NA,NA,NA,"skip",0,2.87,4.656
"2237","glue","force",10,1,1,6.983,16,0.4,1,0,0,1.046,NA,NA,NA,NA,"skip",0,1.751,3.52
"2341","shrink","mafia",26,1,28,1.039,18,0.45,0,1,0,0.463,NA,NA,NA,NA,"flower",0,4.498,6.438
"2341","bullet","walkway",19,1,34,1.195,30,0.75,1,0,0,0.599,NA,NA,NA,NA,"plate",0,3.705,5.219
"2341","port","cinema",13,1,16,1.346,2,0.05,0,0,1,0.477,NA,NA,NA,NA,"tumble",0,3.697,5.412
"2341","climax","saucer",38,1,23,1.441,11,0.275,0,0,1,0.561,NA,NA,NA,NA,"ready",0,2.83,4.96
"2341","risk","zero",31,1,30,1.409,21,0.525,1,1,1,0.781,NA,NA,NA,NA,"tower",0,4.329,8.022
"2341","banner","glide",36,1,22,1.175,9,0.225,0,0,1,0.679,NA,NA,NA,NA,"school",0,3.928,6.138
"2341","mill","feast",12,1,31,1.065,24,0.6,0,1,0,0.526,NA,NA,NA,NA,"rock",0,3.191,5.033
"2341","prison","loaf",37,1,30,1.239,22,0.55,0,1,0,0.556,NA,NA,NA,NA,"skip",0,1.946,3.607
"2341","date","laugh",15,1,22,1.493,10,0.25,0,1,0,0.647,NA,NA,NA,NA,"skip",0,0.864,2.313
"2341","plant","worm",8,1,21,0.965,7,0.175,0,1,0,0.677,NA,NA,NA,NA,"ready",0,1.303,9.131
"2341","find","clown",17,1,35,1.963,33,0.825,1,0,0,0.961,NA,NA,NA,NA,"skip",0,2.504,6.137
"2341","replace","roach",27,1,7,3.539,1,0.025,0,0,1,6.741,NA,NA,NA,NA,"empty",0,5.074,7.047
"2341","pork","emperor",20,1,26,0.927,15,0.375,0,1,0,0.535,NA,NA,NA,NA,"oven",0,12.389,13.725
"2341","link","crisis",24,1,35,1.075,31,0.775,1,1,1,3.775,NA,NA,NA,NA,"wedding",0,4.204,6.439
"2341","nerve","bumper",28,1,45,1.269,39,0.975,1,0,0,0.554,NA,NA,NA,NA,"bark",0,2.963,8.898
"2341","bias","sirloin",3,1,19,1.229,5,0.125,0,0,1,0.805,NA,NA,NA,NA,"skip",0,1.424,3.507
"2341","caring","skirt",9,1,35,1.719,32,0.8,1,1,1,0.465,NA,NA,NA,NA,"empty",0,2.279,4.033
"2341","grip","beach",40,1,33,1.465,29,0.725,1,0,0,0.489,NA,NA,NA,NA,"fold",0,1.931,5.125
"2341","capital","figure",5,1,27,2.971,16,0.4,1,1,1,0.515,NA,NA,NA,NA,"bureau",0,1.427,7.997
"2341","bleach","ruin",35,1,32,1.327,25,0.625,1,1,1,0.601,NA,NA,NA,NA,"hammer",0,2.155,5.229
"2341","bacon","feud",2,1,35,1.623,34,0.85,1,0,0,0.652,NA,NA,NA,NA,"wig",0,4.487,6.573
"2341","need","faucet",14,1,25,1.551,13,0.325,1,1,1,0.58,NA,NA,NA,NA,"skip",0,1.347,4.083
"2341","glue","force",29,1,32,1.418,26,0.65,1,1,1,0.559,NA,NA,NA,NA,"water",0,1.468,2.265
"2341","chicken","beet",6,1,24,1.661,12,0.3,0,0,1,0.557,NA,NA,NA,NA,"beet",1,1.57,3.577
"2341","biology","temper",25,1,41,1.171,38,0.95,1,0,0,0.545,NA,NA,NA,NA,"table",0,2.293,4.14
"2341","copy","bedroom",11,1,29,0.817,19,0.475,0,1,0,0.529,NA,NA,NA,NA,"pasta",0,2.015,3.951
"2341","smother","surgery",16,1,36,1.917,35,0.875,1,0,0,1.039,NA,NA,NA,NA,"bread",0,1.463,3.201
"2341","rock","milk",22,1,30,1.171,23,0.575,0,1,0,0.575,NA,NA,NA,NA,"township",0,2.182,4.007
"2341","fan","feature",1,1,25,1.524,14,0.35,0,1,0,0.497,NA,NA,NA,NA,"rodeo",0,2.092,4.315
"2341","remind","foam",7,1,30,2.093,20,0.5,1,1,1,0.687,NA,NA,NA,NA,"stopwatch",0,1.67,4.687
"2341","calf","annoy",4,1,19,0.967,4,0.1,0,0,1,0.576,NA,NA,NA,NA,"wink",0,1.403,7.275
"2341","want","ascent",39,1,27,1.033,17,0.425,0,1,0,0.493,NA,NA,NA,NA,"city",0,2.363,4.025
"2341","fee","chowder",10,1,32,1.151,27,0.675,1,1,1,0.611,NA,NA,NA,NA,"skip",0,1.646,3.005
"2341","visit","glove",33,1,32,1.151,28,0.7,1,0,0,0.511,NA,NA,NA,NA,"skip",0,2.686,4.209
"2341","knock","otter",23,1,57,1.515,40,1,1,1,1,0.533,NA,NA,NA,NA,"rappel",0,1.622,7.625
"2341","anger","decay",32,1,18,2.878,3,0.075,0,0,1,0.817,NA,NA,NA,NA,"decay",1,5.69,6.809
"2341","forest","knob",34,1,21,1.225,6,0.15,0,0,1,0.597,NA,NA,NA,NA,"mouse",0,2.441,5.585
"2341","pea","bathtub",18,1,22,1.125,8,0.2,0,0,1,0.553,NA,NA,NA,NA,"skip",0,1.281,2.433
"2341","collect","loyalty",21,1,37,1.065,37,0.925,1,0,0,0.777,NA,NA,NA,NA,"skip",0,0.64,3.217
"2341","process","joker",30,1,36,1.845,36,0.9,1,0,0,0.423,NA,NA,NA,NA,"retention",0,2.558,5.265
"2495","visit","glove",14,1,38,9.585,20,0.5,1,0,0,2.151,NA,NA,NA,NA,"clover",0,16.647,21.042
"2495","pea","bathtub",9,1,63,3.232,31,0.775,1,1,1,0.957,NA,NA,NA,NA,"mattress",0,2.291,4.877
"2495","remind","foam",35,1,24,7.505,12,0.3,1,0,0,0.849,NA,NA,NA,NA,"remember",0,10.904,14.585
"2495","copy","bedroom",11,1,12,8.799,8,0.2,0,1,0,0.957,NA,NA,NA,NA,"paste",0,6.975,13.762
"2495","process","joker",4,1,4,9.86,2,0.05,0,1,0,1.381,NA,NA,NA,NA,"joke",0,8.475,13.178
"2495","shrink","mafia",6,1,53,4.579,25,0.625,0,0,1,1.018,NA,NA,NA,NA,"mafia",1,3.513,5.951
"2495","bullet","walkway",33,1,72,4.452,32,0.8,1,1,1,1.219,NA,NA,NA,NA,"walkway",1,4.799,8.074
"2495","port","cinema",19,1,59,4.067,29,0.725,0,0,1,0.842,NA,NA,NA,NA,"cinema",1,4.209,9.192
"2495","chicken","beet",3,1,95,4.184,38,0.95,1,1,1,1.134,NA,NA,NA,NA,"beets",0,2.007,3.777
"2495","link","crisis",16,1,26,8.353,14,0.35,1,0,0,0.848,NA,NA,NA,NA,"chain",0,6.384,7.716
"2495","biology","temper",12,1,35,9.279,16,0.4,0,0,1,3.355,NA,NA,NA,NA,"school",0,7.081,9.059
"2495","smother","surgery",24,1,83,4.407,36,0.9,1,1,1,10.991,NA,NA,NA,NA,"surgery",1,2.503,6.198
"2495","date","laugh",8,1,20,4.799,11,0.275,1,0,0,0.779,NA,NA,NA,NA,"beach",0,8.994,10.44
"2495","mill","feast",36,1,38,5.633,19,0.475,0,0,1,0.849,NA,NA,NA,NA,"feast",1,4.875,6.612
"2495","prison","loaf",27,1,90,5.519,37,0.925,1,1,1,10.938,NA,NA,NA,NA,"loaf",1,1.384,5.539
"2495","calf","annoy",29,1,61,7.082,30,0.75,0,0,1,0.887,NA,NA,NA,NA,"cow",0,9.221,10.617
"2495","bleach","ruin",38,1,99,3.465,39,0.975,1,1,1,0.831,NA,NA,NA,NA,"ruin",1,2.114,3.042
"2495","replace","roach",30,1,10,9.558,5,0.125,0,1,0,1.474,NA,NA,NA,NA,"roach",1,4.974,6.254
"2495","anger","decay",15,1,8,7.539,4,0.1,0,1,0,1.141,NA,NA,NA,NA,"fight",0,10.611,12.028
"2495","glue","force",1,1,54,5.03,27,0.675,0,0,1,0.834,NA,NA,NA,NA,"force",1,5.5,7.359
"2495","collect","loyalty",5,1,75,7.981,33,0.825,1,1,1,0.801,NA,NA,NA,NA,"loyalty",1,1.77,4.107
"2495","fan","feature",26,1,41,7.489,23,0.575,1,0,0,1.174,NA,NA,NA,NA,"feature",1,2.833,4.619
"2495","climax","saucer",39,1,36,3.619,17,0.425,0,0,1,0.809,NA,NA,NA,NA,"top",0,8.406,8.981
"2495","plant","worm",17,1,99,6.059,40,1,1,1,1,1.573,NA,NA,NA,NA,"worm",1,1.684,3.1
"2495","rock","milk",20,1,44,4.199,24,0.6,0,0,1,0.879,NA,NA,NA,NA,"milk",1,1.352,2.241
"2495","capital","figure",7,1,39,6.159,21,0.525,1,0,0,0.979,NA,NA,NA,NA,"center",0,4.461,8.456
"2495","find","clown",23,1,79,6.02,35,0.875,1,1,1,0.825,NA,NA,NA,NA,"clown",1,4.406,6.618
"2495","need","faucet",28,1,15,7.285,10,0.25,0,1,0,1.057,NA,NA,NA,NA,"want",0,1.832,2.977
"2495","want","ascent",18,1,7,9.62,3,0.075,0,1,0,1.217,NA,NA,NA,NA,"have",0,6.164,9.042
"2495","banner","glide",31,1,41,5.595,22,0.55,1,0,0,0.762,NA,NA,NA,NA,"flag",0,2.067,4.257
"2495","caring","skirt",32,1,11,6.526,7,0.175,0,1,0,0.879,NA,NA,NA,NA,"person",0,6.576,8.421
"2495","nerve","bumper",2,1,11,5.773,6,0.15,0,1,0,1.027,NA,NA,NA,NA,"help",0,13.204,14.174
"2495","forest","knob",22,1,25,8.839,13,0.325,1,0,0,0.767,NA,NA,NA,NA,"trees",0,6.567,7.988
"2495","bacon","feud",34,1,32,9.35,15,0.375,1,0,0,1.041,NA,NA,NA,NA,"eggs",0,1.859,4.293
"2495","fee","chowder",37,1,54,6.968,26,0.65,0,0,1,0.91,NA,NA,NA,NA,"charge",0,8.323,10.052
"2495","pork","emperor",10,1,37,8.579,18,0.45,1,0,0,1.158,NA,NA,NA,NA,"cow",0,10.274,13.563
"2495","bias","sirloin",21,1,2,11.484,1,0.025,0,1,0,11.986,NA,NA,NA,NA,"sirloin",1,5.987,8.011
"2495","grip","beach",40,1,55,4.353,28,0.7,0,0,1,0.817,NA,NA,NA,NA,"hold",0,6.157,7.321
"2495","risk","zero",13,1,79,6.222,34,0.85,1,1,1,0.787,NA,NA,NA,NA,"zero",1,1.639,2.801
"2495","knock","otter",25,1,13,5.712,9,0.225,0,1,0,0.84,NA,NA,NA,NA,"door",0,9.996,11.752
"2503","caring","skirt",20,1,68,2.222,35,0.875,1,0,0,0.831,NA,NA,NA,NA,"skill",0,1.871,3.062
"2503","banner","glide",26,1,44,2.009,16,0.4,0,1,0,1.073,NA,NA,NA,NA,"flag",0,7.382,7.996
"2503","remind","foam",15,1,32,5.913,8,0.2,0,0,1,3.96,NA,NA,NA,NA,"water",0,2.459,3.127
"2503","bleach","ruin",28,1,67,2.096,33,0.825,1,1,1,0.784,NA,NA,NA,NA,"clean",0,1.985,2.671
"2503","capital","figure",8,1,43,3.129,15,0.375,0,1,0,0.715,NA,NA,NA,NA,"case",0,1.736,2.407
"2503","prison","loaf",32,1,55,1.905,22,0.55,0,1,0,2.059,NA,NA,NA,NA,"cell",0,1.336,2.551
"2503","bacon","feud",24,1,43,2.888,14,0.35,1,1,1,1.24,NA,NA,NA,NA,"emperor",0,1.898,3.903
"2503","risk","zero",40,1,31,1.681,7,0.175,0,1,0,0.916,NA,NA,NA,NA,"arrive",0,1.768,3.431
"2503","find","clown",1,1,34,2.214,9,0.225,0,0,1,0.673,NA,NA,NA,NA,"truce",0,1.441,2.735
"2503","pork","emperor",10,1,30,2.923,5,0.125,0,0,1,3.603,NA,NA,NA,NA,"emperor",1,2.665,5.239
"2503","pea","bathtub",30,1,26,1.898,4,0.1,0,1,0,0.744,NA,NA,NA,NA,"sweet",0,1.801,5.175
"2503","bias","sirloin",14,1,51,2.887,19,0.475,0,1,0,0.709,NA,NA,NA,NA,"well",0,1.889,2.447
"2503","fan","feature",29,1,73,3.681,38,0.95,1,0,0,2.467,NA,NA,NA,NA,"fast",0,2.617,3.199
"2503","plant","worm",34,1,62,2.091,27,0.675,1,0,0,1.241,NA,NA,NA,NA,"soil",0,1.425,5.543
"2503","knock","otter",38,1,55,3.855,21,0.525,0,1,0,1.605,NA,NA,NA,NA,"wood",0,4.713,5.351
"2503","bullet","walkway",16,1,41,2.267,13,0.325,0,0,1,0.781,NA,NA,NA,NA,"proof",0,1.504,2.583
"2503","visit","glove",3,1,63,2.345,28,0.7,1,0,0,0.751,NA,NA,NA,NA,"well",0,2.128,2.711
"2503","smother","surgery",33,1,17,3.008,2,0.05,0,0,1,1.588,NA,NA,NA,NA,"could",0,1.76,3.511
"2503","calf","annoy",6,1,35,1.902,10,0.25,0,0,1,0.704,NA,NA,NA,NA,"smother",0,2.745,4.231
"2503","need","faucet",19,1,74,2.393,39,0.975,1,1,1,1.31,NA,NA,NA,NA,"well",0,1.559,2.254
"2503","climax","saucer",22,1,64,2.084,30,0.75,1,1,1,0.717,NA,NA,NA,NA,"fast",0,2.008,2.632
"2503","anger","decay",39,1,51,2.267,20,0.5,0,1,0,9.181,NA,NA,NA,NA,"fiery",0,2.464,4.566
"2503","mill","feast",2,1,57,2.209,23,0.575,0,1,0,2.809,NA,NA,NA,NA,"wind",0,2.16,3.262
"2503","process","joker",11,1,47,1.374,18,0.45,1,1,1,0.869,NA,NA,NA,NA,"fast",0,2.162,2.807
"2503","collect","loyalty",23,1,60,1.677,25,0.625,1,0,0,0.747,NA,NA,NA,NA,"skill",0,2.056,4.951
"2503","fee","chowder",27,1,66,2.053,31,0.775,1,1,1,1.471,NA,NA,NA,NA,"fare",0,1.464,2.223
"2503","forest","knob",25,1,39,3.566,12,0.3,0,0,1,1.475,NA,NA,NA,NA,"fire",0,1.991,2.697
"2503","glue","force",36,1,61,2.035,26,0.65,1,1,1,0.951,NA,NA,NA,NA,"stick",0,1.333,2.644
"2503","chicken","beet",4,1,57,1.903,24,0.6,1,0,0,0.613,NA,NA,NA,NA,"stew",0,1.833,4.863
"2503","rock","milk",17,1,67,1.835,34,0.85,1,0,0,3.235,NA,NA,NA,NA,"hard",0,1.769,2.567
"2503","biology","temper",31,1,66,2.029,32,0.8,1,0,0,0.702,NA,NA,NA,NA,"science",0,2.984,4.095
"2503","want","ascent",13,1,1,1.693,1,0.025,0,0,1,1.637,NA,NA,NA,NA,"need",0,1.808,2.647
"2503","link","crisis",18,1,71,6.855,37,0.925,1,0,0,1.153,NA,NA,NA,NA,"connect",0,2.209,3.391
"2503","nerve","bumper",5,1,69,1.487,36,0.9,1,1,1,0.6,NA,NA,NA,NA,"hand",0,1.447,2.638
"2503","replace","roach",12,1,76,2.111,40,1,1,0,0,1.143,NA,NA,NA,NA,"wild",0,1.561,2.279
"2503","grip","beach",37,1,45,1.734,17,0.425,1,1,1,0.756,NA,NA,NA,NA,"hand",0,1.553,3.039
"2503","shrink","mafia",35,1,30,2.186,6,0.15,0,0,1,1.775,NA,NA,NA,NA,"cell",0,2.504,3.167
"2503","copy","bedroom",21,1,26,1.762,3,0.075,0,1,0,0.8,NA,NA,NA,NA,"write",0,2.56,3.914
"2503","date","laugh",9,1,64,2.125,29,0.725,1,1,1,1.121,NA,NA,NA,NA,"week",0,2.758,3.484
"2503","port","cinema",7,1,38,1.681,11,0.275,0,0,1,1.547,NA,NA,NA,NA,"ship",0,1.946,2.774
"2652","want","ascent",20,1,20,4.885,15,0.375,0,1,0,0.725,NA,NA,NA,NA,"calf",0,15.784,17.53
"2652","forest","knob",25,1,67,4.372,28,0.7,1,1,1,0.728,NA,NA,NA,NA,"knob",1,2.476,7.049
"2652","pork","emperor",9,1,85,5.491,39,0.975,0,0,1,1.563,NA,NA,NA,NA,"emperor",1,1.746,3.685
"2652","smother","surgery",13,1,80,4.77,38,0.95,0,0,1,0.818,NA,NA,NA,NA,"surgery",1,2.196,4.229
"2652","knock","otter",22,1,21,3.104,20,0.5,0,1,0,0.63,NA,NA,NA,NA,"otter",1,5.52,6.712
"2652","bias","sirloin",5,1,10,4.723,1,0.025,1,0,0,1.153,NA,NA,NA,NA,"chaos",0,9.216,11.243
"2652","bacon","feud",23,1,75,4.159,30,0.75,1,1,1,0.607,NA,NA,NA,NA,"fight",0,9.021,11.181
"2652","mill","feast",31,1,75,3.653,33,0.825,0,0,1,0.865,NA,NA,NA,NA,"feast",1,9.984,11.596
"2652","caring","skirt",18,1,15,2.438,10,0.25,1,1,1,0.952,NA,NA,NA,NA,"calf",0,1.851,5.126
"2652","anger","decay",10,1,10,15.18,3,0.075,1,0,0,0.831,NA,NA,NA,NA,"chaos",0,1.805,3.561
"2652","glue","force",35,1,65,6.849,27,0.675,1,1,1,0.668,NA,NA,NA,NA,"force",1,1.452,2.663
"2652","bleach","ruin",26,1,80,3.754,37,0.925,0,0,1,0.7,NA,NA,NA,NA,"ruin",1,6.061,9.761
"2652","process","joker",2,1,15,2.932,5,0.125,1,0,0,0.603,NA,NA,NA,NA,"forest",0,3.74,5.656
"2652","plant","worm",4,1,15,5.992,9,0.225,1,0,0,0.488,NA,NA,NA,NA,"chaos",0,3.116,5.173
"2652","need","faucet",37,1,79,6.093,34,0.85,0,0,1,1.289,NA,NA,NA,NA,"faucet",1,3.871,5.952
"2652","remind","foam",11,1,20,5.222,17,0.425,0,1,0,1.472,NA,NA,NA,NA,"SKIP",0,2.911,5.168
"2652","rock","milk",7,1,25,6.65,22,0.55,0,1,0,0.643,NA,NA,NA,NA,"milk",1,2.271,7.827
"2652","find","clown",15,1,75,5.082,29,0.725,1,1,1,0.808,NA,NA,NA,NA,"clown",1,5.212,10.952
"2652","climax","saucer",29,1,10,9.521,4,0.1,1,1,1,0.751,NA,NA,NA,NA,"elbow",0,3.164,4.405
"2652","shrink","mafia",17,1,20,5.767,16,0.4,0,1,0,0.638,NA,NA,NA,NA,"mafia",1,2.159,4.608
"2652","fee","chowder",40,1,19,5.285,11,0.275,1,0,0,0.627,NA,NA,NA,NA,"capital",0,3.984,5.851
"2652","link","crisis",32,1,50,6.302,24,0.6,1,1,1,0.898,NA,NA,NA,NA,"crisis",1,9.868,22.879
"2652","bullet","walkway",27,1,85,5.134,40,1,0,0,1,0.674,NA,NA,NA,NA,"walkway",1,8.397,10.503
"2652","date","laugh",12,1,75,4.898,31,0.775,0,0,1,0.552,NA,NA,NA,NA,"laugh",1,2.222,4.367
"2652","biology","temper",16,1,31,4.746,23,0.575,0,1,0,0.662,NA,NA,NA,NA,"heat",0,5.599,14.955
"2652","risk","zero",39,1,50,9.921,25,0.625,0,1,0,0.685,NA,NA,NA,NA,"zero",1,6.748,8.997
"2652","nerve","bumper",36,1,20,5.763,18,0.45,1,1,1,0.82,NA,NA,NA,NA,"SKIP",0,4.095,5.8
"2652","grip","beach",38,1,20,8.825,12,0.3,1,1,1,10.479,NA,NA,NA,NA,"pan",0,3.711,4.959
"2652","pea","bathtub",6,1,20,11.241,13,0.325,1,0,0,0.944,NA,NA,NA,NA,"bathtub",1,6.848,9.424
"2652","replace","roach",28,1,15,4.981,6,0.15,1,0,0,0.711,NA,NA,NA,NA,"pot",0,3.696,5.048
"2652","prison","loaf",21,1,80,5.942,36,0.9,0,0,1,0.958,NA,NA,NA,NA,"loaf",1,6.113,7.12
"2652","chicken","beet",1,1,75,4.229,32,0.8,0,0,1,0.606,NA,NA,NA,NA,"beet",1,2.72,4.264
"2652","banner","glide",14,1,10,4.623,2,0.05,1,0,0,0.647,NA,NA,NA,NA,"flag",0,2.4,4.04
"2652","visit","glove",24,1,20,8.016,14,0.35,0,1,0,0.768,NA,NA,NA,NA,"otter",0,3.648,4.584
"2652","fan","feature",19,1,50,5.511,26,0.65,0,1,0,0.614,NA,NA,NA,NA,"collection",0,10.185,12.576
"2652","calf","annoy",34,1,15,6.14,7,0.175,1,0,0,0.924,NA,NA,NA,NA,"chaos",0,1.672,3.096
"2652","copy","bedroom",8,1,22,4.371,21,0.525,0,1,0,0.906,NA,NA,NA,NA,"forrest",0,5.873,7.584
"2652","capital","figure",3,1,20,8.834,19,0.475,1,1,1,0.711,NA,NA,NA,NA,"budget",0,4.76,5.927
"2652","collect","loyalty",33,1,15,2.695,8,0.2,1,0,0,0.589,NA,NA,NA,NA,"SKIP",0,3.672,4.711
"2652","port","cinema",30,1,79,5.914,35,0.875,0,0,1,0.98,NA,NA,NA,NA,"cinema",1,2.368,3.791
"2727","rock","milk",16,1,67,2.723,33,0.825,1,1,1,1.056,NA,NA,NA,NA,"sheet",0,26.349,28.865
"2727","fan","feature",35,1,62,2.288,7,0.175,0,1,0,1.152,NA,NA,NA,NA,"feature",1,13.258,20.677
"2727","replace","roach",36,1,72,2.594,38,0.95,1,0,0,1.547,NA,NA,NA,NA,"dog",0,32.556,35.121
"2727","prison","loaf",25,1,64,2.015,15,0.375,0,1,0,1.307,NA,NA,NA,NA,"loaf",1,5.312,7.279
"2727","forest","knob",14,1,66,2.333,29,0.725,1,0,0,1.28,NA,NA,NA,NA,"tree",0,41.387,43.393
"2727","chicken","beet",21,1,70,2.494,35,0.875,1,0,0,1.172,NA,NA,NA,NA,"seed",0,28.688,30.764
"2727","bacon","feud",24,1,65,2.751,20,0.5,0,1,0,1.217,NA,NA,NA,NA,"feud",1,15.967,17.824
"2727","calf","annoy",32,1,69,2.951,34,0.85,1,0,0,1.156,NA,NA,NA,NA,"cow",0,26.29,28.002
"2727","risk","zero",1,1,64,2.546,18,0.45,1,1,1,1.151,NA,NA,NA,NA,"danger",0,36.316,38.998
"2727","date","laugh",5,1,67,9.362,32,0.8,1,1,1,1.183,NA,NA,NA,NA,"laugh",1,8.238,10.603
"2727","capital","figure",39,1,65,2.158,25,0.625,1,1,1,1.623,NA,NA,NA,NA,"state",0,17.939,19.896
"2727","nerve","bumper",7,1,66,2.881,27,0.675,1,0,0,1.876,NA,NA,NA,NA,"bad",0,31.311,33.164
"2727","bias","sirloin",28,1,65,2.644,22,0.55,1,1,1,1.982,NA,NA,NA,NA,"politic",0,32.945,35.755
"2727","pea","bathtub",26,1,63,2.062,13,0.325,0,0,1,1.218,NA,NA,NA,NA,"fruit",0,52.083,54.131
"2727","process","joker",34,1,65,2.494,23,0.575,1,1,1,1.061,NA,NA,NA,NA,"meat",0,19.775,22.157
"2727","shrink","mafia",33,1,65,2.391,21,0.525,0,1,0,1.497,NA,NA,NA,NA,"mafia",1,20.978,25.773
"2727","anger","decay",23,1,66,2.064,31,0.775,1,1,1,1.688,NA,NA,NA,NA,"decay",1,11.94,14.129
"2727","find","clown",29,1,61,2.531,6,0.15,0,0,1,1.418,NA,NA,NA,NA,"clown",1,20.677,22.805
"2727","caring","skirt",6,1,51,2.001,1,0.025,0,0,1,1.498,NA,NA,NA,NA,"skirt",1,6,8.267
"2727","bleach","ruin",37,1,73,3.107,39,0.975,1,0,0,1.768,NA,NA,NA,NA,"wash",0,43.656,49.084
"2727","glue","force",40,1,77,8.858,40,1,1,0,0,11.301,NA,NA,NA,NA,"force",1,17.575,19.779
"2727","knock","otter",13,1,65,2.342,24,0.6,1,1,1,1.27,NA,NA,NA,NA,"door",0,26.513,28.415
"2727","biology","temper",22,1,70,1.979,36,0.9,1,0,0,1.298,NA,NA,NA,NA,"temper",1,6.874,9.457
"2727","need","faucet",10,1,66,2.11,30,0.75,1,1,1,1.318,NA,NA,NA,NA,"faucet",1,10.058,17.337
"2727","plant","worm",38,1,62,2.092,10,0.25,0,0,1,1.138,NA,NA,NA,NA,"worm",1,16.943,19.312
"2727","grip","beach",12,1,71,4.013,37,0.925,1,0,0,1.329,NA,NA,NA,NA,"tool",0,20.206,22.252
"2727","banner","glide",4,1,66,3.186,28,0.7,1,0,0,3.858,NA,NA,NA,NA,"flag",0,2.843,5.143
"2727","bullet","walkway",31,1,61,2.096,5,0.125,0,1,0,1.369,NA,NA,NA,NA,"gun",0,23.401,25.386
"2727","mill","feast",11,1,61,2.919,4,0.1,0,1,0,1.848,NA,NA,NA,NA,"feast",1,10.189,12.658
"2727","collect","loyalty",20,1,54,1.964,2,0.05,0,1,0,1.468,NA,NA,NA,NA,"loyalty",1,14.005,17.327
"2727","visit","glove",3,1,64,2.317,16,0.4,0,0,1,1.061,NA,NA,NA,NA,"glove",1,5.164,7.214
"2727","remind","foam",9,1,62,2.15,8,0.2,0,0,1,5.18,NA,NA,NA,NA,"foam",1,8.943,11.384
"2727","want","ascent",17,1,64,3.053,17,0.425,1,1,1,1.062,NA,NA,NA,NA,"love",0,42.525,45.191
"2727","copy","bedroom",19,1,65,6.597,19,0.475,0,1,0,5.179,NA,NA,NA,NA,"bedroom",1,12.932,16.563
"2727","link","crisis",30,1,63,2.142,12,0.3,0,0,1,1.227,NA,NA,NA,NA,"crisis",1,18.593,21.452
"2727","pork","emperor",8,1,63,2.445,14,0.35,0,0,1,1.249,NA,NA,NA,NA,"emperor",1,17.014,19.54
"2727","smother","surgery",27,1,60,4.846,3,0.075,0,0,1,4.497,NA,NA,NA,NA,"surgery",1,8.538,11.413
"2727","climax","saucer",2,1,62,2.568,9,0.225,0,0,1,1.158,NA,NA,NA,NA,"saucer",1,3.053,5.502
"2727","port","cinema",15,1,63,6.999,11,0.275,0,1,0,5.64,NA,NA,NA,NA,"cinema",1,11.062,13.81
"2727","fee","chowder",18,1,66,3.191,26,0.65,0,1,0,1.496,NA,NA,NA,NA,"chowder",1,10.067,12.458
"2767","forest","knob",20,1,70,5.438,28,0.7,1,0,0,3.181,NA,NA,NA,NA,"knob",1,6.271,8.997
"2767","anger","decay",22,1,20,5.15,4,0.1,0,1,0,0.926,NA,NA,NA,NA,"decay",1,6.071,9.316
"2767","capital","figure",40,1,32,4.582,17,0.425,1,0,0,1.111,NA,NA,NA,NA,"skip",0,12.142,14.831
"2767","need","faucet",10,1,36,3.227,20,0.5,0,0,1,0.688,NA,NA,NA,NA,"faucet",1,7.01,17.775
"2767","banner","glide",4,1,10,4.275,1,0.025,0,1,0,1.293,NA,NA,NA,NA,"sail",0,3.805,7.653
"2767","biology","temper",33,1,26,4.318,8,0.2,0,1,0,0.918,NA,NA,NA,NA,"nature",0,17.632,21.71
"2767","risk","zero",32,1,23,3.972,6,0.15,0,1,0,0.789,NA,NA,NA,NA,"zero",1,11.101,13.463
"2767","pork","emperor",24,1,100,13.085,35,0.875,1,1,1,0.982,NA,NA,NA,NA,"emperor",1,1.475,6.535
"2767","climax","saucer",14,1,50,11.053,24,0.6,1,0,0,1.567,NA,NA,NA,NA,"plate",0,2.367,6.802
"2767","find","clown",26,1,39,7.259,22,0.55,1,0,0,1.118,NA,NA,NA,NA,"mask",0,8.135,10.253
"2767","knock","otter",17,1,100,5.621,31,0.775,1,1,1,0.822,NA,NA,NA,NA,"skip",0,4.584,6.472
"2767","pea","bathtub",31,1,21,2.725,5,0.125,0,1,0,2.054,NA,NA,NA,NA,"skip",0,6.54,8.311
"2767","bias","sirloin",11,1,31,3.276,16,0.4,0,0,1,0.781,NA,NA,NA,NA,"sirloin",1,4.36,7.062
"2767","prison","loaf",18,1,100,3.919,33,0.825,1,1,1,0.82,NA,NA,NA,NA,"loaf",1,2.18,4.197
"2767","process","joker",36,1,12,3.637,2,0.05,0,0,1,0.725,NA,NA,NA,NA,"skip",0,9.497,11.616
"2767","grip","beach",23,1,65,20.274,27,0.675,0,0,1,21.844,NA,NA,NA,NA,"beach",1,5.136,7.31
"2767","port","cinema",37,1,50,5.214,26,0.65,1,0,0,0.812,NA,NA,NA,NA,"skip",0,1.919,4.182
"2767","replace","roach",21,1,31,5.055,14,0.35,1,0,0,1.955,NA,NA,NA,NA,"skip",0,7.162,9.046
"2767","want","ascent",7,1,31,2.429,15,0.375,0,0,1,1.006,NA,NA,NA,NA,"skip",0,2.121,3.845
"2767","caring","skirt",8,1,36,2.725,19,0.475,1,0,0,0.782,NA,NA,NA,NA,"bedroom",0,12.818,18.112
"2767","bacon","feud",39,1,100,2.143,40,1,1,1,1,1.916,NA,NA,NA,NA,"feud",1,2.893,5.669
"2767","fan","feature",6,1,100,2.509,39,0.975,1,1,1,0.734,NA,NA,NA,NA,"feather",0,3.768,8.493
"2767","date","laugh",30,1,29,2.574,13,0.325,1,0,0,0.847,NA,NA,NA,NA,"laugh",1,8.528,10.639
"2767","collect","loyalty",13,1,100,4.419,34,0.85,1,1,1,0.932,NA,NA,NA,NA,"loyalty",1,9.95,13.208
"2767","visit","glove",34,1,34,2.721,18,0.45,1,0,0,1.013,NA,NA,NA,NA,"skip",0,3.754,5.788
"2767","link","crisis",5,1,50,7.71,25,0.625,1,0,0,2.933,NA,NA,NA,NA,"skp",0,1.958,3.807
"2767","rock","milk",3,1,100,7.47,32,0.8,1,1,1,1.339,NA,NA,NA,NA,"milk",1,2.065,4.375
"2767","calf","annoy",28,1,15,3.405,3,0.075,0,1,0,0.87,NA,NA,NA,NA,"annoy",1,13.029,15.229
"2767","nerve","bumper",1,1,28,2.14,12,0.3,0,0,1,0.662,NA,NA,NA,NA,"bumper",1,4.279,8.06
"2767","shrink","mafia",16,1,27,3.463,10,0.25,0,1,0,0.652,NA,NA,NA,NA,"skip",0,7.283,9.432
"2767","bullet","walkway",12,1,100,3.925,30,0.75,0,0,1,2.263,NA,NA,NA,NA,"walkway",1,1.584,4.968
"2767","fee","chowder",2,1,24,2.645,7,0.175,0,1,0,0.854,NA,NA,NA,NA,"chowder",1,3.666,7.084
"2767","copy","bedroom",15,1,26,5.118,9,0.225,0,1,0,0.77,NA,NA,NA,NA,"skip",0,8.992,11.195
"2767","smother","surgery",19,1,28,2.861,11,0.275,0,1,0,0.903,NA,NA,NA,NA,"surgery",1,4.501,6.848
"2767","plant","worm",29,1,39,3.853,23,0.575,0,0,1,2.654,NA,NA,NA,NA,"worm",1,3.224,5.576
"2767","bleach","ruin",35,1,100,2.598,38,0.95,1,1,1,0.894,NA,NA,NA,NA,"ruin",1,2.463,4.188
"2767","remind","foam",25,1,38,3.213,21,0.525,0,0,1,2.981,NA,NA,NA,NA,"zero",0,16.909,18.72
"2767","chicken","beet",27,1,100,3.205,37,0.925,1,1,1,0.758,NA,NA,NA,NA,"beet",1,2.038,5.327
"2767","mill","feast",9,1,100,3.358,36,0.9,1,1,1,1.046,NA,NA,NA,NA,"feast",1,12.585,15.076
"2767","glue","force",38,1,76,7.484,29,0.725,0,0,1,1.27,NA,NA,NA,NA,"tough",0,16.682,18.36
"2854","find","clown",36,1,23,3.132,18,0.45,1,1,1,1.576,NA,NA,NA,NA,"locate",0,14.481,17.475
"2854","collect","loyalty",7,1,25,2.983,24,0.6,1,1,1,1.636,NA,NA,NA,NA,"continue",0,13.037,15.652
"2854","visit","glove",26,1,9,3.022,1,0.025,1,0,0,1.634,NA,NA,NA,NA,"empty",0,7.636,9.801
"2854","plant","worm",19,1,83,4.416,40,1,0,0,1,1.634,NA,NA,NA,NA,"worm",1,13.204,15.083
"2854","remind","foam",39,1,9,2.906,2,0.05,1,0,0,1.723,NA,NA,NA,NA,"restore",0,10.317,13.409
"2854","want","ascent",4,1,25,2.911,25,0.625,1,1,1,1.421,NA,NA,NA,NA,"need",0,5.196,7.732
"2854","port","cinema",13,1,15,3.273,9,0.225,1,1,1,1.758,NA,NA,NA,NA,"boat",0,7.41,10.685
"2854","replace","roach",18,1,12,3.66,6,0.15,1,0,0,1.6,NA,NA,NA,NA,"new",0,12.897,14.905
"2854","bacon","feud",15,1,38,7.62,34,0.85,0,1,0,2.619,NA,NA,NA,NA,"feud",1,6.98,10.636
"2854","pork","emperor",30,1,40,5.826,38,0.95,0,0,1,1.312,NA,NA,NA,NA,"emperor",1,1.92,14.927
"2854","grip","beach",33,1,26,2.978,28,0.7,0,0,1,1.283,NA,NA,NA,NA,"beach",1,9.173,11.81
"2854","bleach","ruin",10,1,24,4.32,19,0.475,0,1,0,1.781,NA,NA,NA,NA,"ruin",1,2.124,4.471
"2854","need","faucet",1,1,15,4.358,10,0.25,1,1,1,1.464,NA,NA,NA,NA,"want",0,7.481,9.386
"2854","calf","annoy",5,1,64,5.51,39,0.975,0,0,1,1.194,NA,NA,NA,NA,"annoy",1,2.457,5.735
"2854","fan","feature",22,1,21,3.361,15,0.375,0,1,0,1.282,NA,NA,NA,NA,"turn",0,6.61,9.223
"2854","glue","force",16,1,38,3.382,36,0.9,0,0,1,1.685,NA,NA,NA,NA,"force",1,9.392,12.32
"2854","biology","temper",9,1,36,3.248,33,0.825,0,0,1,1.642,NA,NA,NA,NA,"temper",1,8.304,11.824
"2854","copy","bedroom",31,1,30,6.611,31,0.775,0,1,0,6.285,NA,NA,NA,NA,"paper",0,11.78,13.865
"2854","capital","figure",3,1,21,2.984,16,0.4,0,1,0,1.319,NA,NA,NA,NA,"building",0,6.428,9.394
"2854","prison","loaf",11,1,9,3.066,3,0.075,1,0,0,1.539,NA,NA,NA,NA,"containment",0,7.299,10.452
"2854","risk","zero",23,1,14,3.08,7,0.175,1,0,0,1.618,NA,NA,NA,NA,"reward",0,8.321,11.132
"2854","pea","bathtub",29,1,17,3.588,12,0.3,1,0,0,1.554,NA,NA,NA,NA,"shoot",0,2.23,4.861
"2854","anger","decay",14,1,29,2.919,30,0.75,0,0,1,1.575,NA,NA,NA,NA,"decay",1,8.125,10.055
"2854","caring","skirt",40,1,16,3.307,11,0.275,1,1,1,1.466,NA,NA,NA,NA,"assistance",0,7.273,11.882
"2854","climax","saucer",34,1,25,3.881,23,0.575,0,1,0,1.67,NA,NA,NA,NA,"ending",0,7.335,10.99
"2854","shrink","mafia",25,1,20,4.24,14,0.35,0,1,0,1.886,NA,NA,NA,NA,"mafia",1,10.195,12.83
"2854","link","crisis",37,1,25,4.519,22,0.55,0,1,0,1.819,NA,NA,NA,NA,"crisis",1,8.791,13.918
"2854","forest","knob",38,1,18,4.079,13,0.325,1,0,0,1.51,NA,NA,NA,NA,"ground",0,8.817,11.877
"2854","date","laugh",24,1,26,4.08,27,0.675,1,1,1,1.372,NA,NA,NA,NA,"calendar ",0,11.155,19.484
"2854","chicken","beet",32,1,27,3.088,29,0.725,0,0,1,1.539,NA,NA,NA,NA,"beet",1,1.875,3.262
"2854","banner","glide",17,1,39,2.396,37,0.925,0,0,1,1.342,NA,NA,NA,NA,"headline",0,8.448,11.831
"2854","bias","sirloin",12,1,21,3.132,17,0.425,1,1,1,1.477,NA,NA,NA,NA,"grudge",0,6.239,9.818
"2854","nerve","bumper",20,1,26,3.206,26,0.65,0,1,0,1.84,NA,NA,NA,NA,"pain",0,2.615,8.962
"2854","mill","feast",27,1,15,3.064,8,0.2,1,0,0,1.819,NA,NA,NA,NA,"grain",0,7.26,10.083
"2854","process","joker",28,1,24,2.927,21,0.525,1,1,1,1.478,NA,NA,NA,NA,"amplify",0,8.284,11.923
"2854","knock","otter",21,1,24,5.165,20,0.5,1,1,1,1.591,NA,NA,NA,NA,"enter",0,2.996,6.103
"2854","bullet","walkway",6,1,35,2.73,32,0.8,0,0,1,1.782,NA,NA,NA,NA,"walkway",1,6.774,9.566
"2854","rock","milk",8,1,38,2.951,35,0.875,0,1,0,1.451,NA,NA,NA,NA,"milk",1,1.964,5.547
"2854","smother","surgery",35,1,10,4.778,4,0.1,1,0,0,1.577,NA,NA,NA,NA,"cover",0,2.525,4.476
"2854","fee","chowder",2,1,10,3.961,5,0.125,1,0,0,1.519,NA,NA,NA,NA,"entrance",0,1.503,4.45
"2968","climax","saucer",4,1,20,9.28,2,0.05,1,0,0,1.28,NA,NA,NA,NA,"SKIP",0,3.471,6.848
"2968","want","ascent",22,1,80,5.414,31,0.775,0,0,1,1.623,NA,NA,NA,NA,"SKIP",0,4.241,4.84
"2968","port","cinema",3,1,30,4.279,5,0.125,1,0,0,0.879,NA,NA,NA,NA,"SKIP",0,1.848,2.551
"2968","caring","skirt",35,1,55,3.912,13,0.325,0,1,0,0.672,NA,NA,NA,NA,"skirt",1,1.919,4.711
"2968","risk","zero",9,1,85,6.831,40,1,0,0,1,0.688,NA,NA,NA,NA,"zero",1,1.992,4.304
"2968","mill","feast",10,1,85,3.959,37,0.925,0,0,1,0.831,NA,NA,NA,NA,"feast",1,2.008,3.048
"2968","forest","knob",34,1,85,5.248,36,0.9,0,0,1,0.823,NA,NA,NA,NA,"knob",1,2.577,5.217
"2968","prison","loaf",33,1,85,5.776,38,0.95,0,0,1,1.823,NA,NA,NA,NA,"loaf",1,2.656,6.344
"2968","banner","glide",23,1,40,9.135,7,0.175,1,0,0,0.736,NA,NA,NA,NA,"SKIP",0,2.568,3.007
"2968","biology","temper",36,1,40,9.24,9,0.225,1,0,0,0.664,NA,NA,NA,NA,"SKIP",0,1.721,2.224
"2968","bias","sirloin",11,1,55,3.312,12,0.3,0,1,0,0.72,NA,NA,NA,NA,"sirloin",1,3.032,6.784
"2968","plant","worm",29,1,70,3.767,23,0.575,0,1,0,0.688,NA,NA,NA,NA,"worm",1,1.703,3.223
"2968","fee","chowder",27,1,75,9.071,25,0.625,0,1,0,1.624,NA,NA,NA,NA,"chowder",1,5.583,8
"2968","replace","roach",32,1,80,5.559,32,0.8,0,0,1,2.127,NA,NA,NA,NA,"SKIP",0,4.064,4.471
"2968","calf","annoy",14,1,75,4.808,27,0.675,1,1,1,0.8,NA,NA,NA,NA,"annoy",1,1.479,5.215
"2968","pork","emperor",21,1,85,6.843,35,0.875,0,0,1,9.103,NA,NA,NA,NA,"emperor",1,5.64,10.984
"2968","bacon","feud",6,1,30,5.527,4,0.1,1,0,0,0.935,NA,NA,NA,NA,"SKIP",0,3.52,3.983
"2968","fan","feature",8,1,65,5.687,18,0.45,0,1,0,1.142,NA,NA,NA,NA,"festival",0,6.305,13.584
"2968","visit","glove",20,1,60,3.879,14,0.35,1,1,1,0.863,NA,NA,NA,NA,"glove",1,4.24,6.703
"2968","collect","loyalty",5,1,25,9.727,3,0.075,1,0,0,0.72,NA,NA,NA,NA,"SKIP",0,3.136,3.551
"2968","anger","decay",31,1,40,9.791,8,0.2,1,0,0,0.72,NA,NA,NA,NA,"SKIP",0,5.008,5.583
"2968","smother","surgery",19,1,75,7.415,26,0.65,1,1,1,1.32,NA,NA,NA,NA,"surgery",1,1.343,3.536
"2968","nerve","bumper",15,1,30,15.201,6,0.15,1,0,0,0.711,NA,NA,NA,NA,"SKIP",0,4.4,4.895
"2968","process","joker",40,1,70,3.359,21,0.525,1,1,1,0.792,NA,NA,NA,NA,"joker",1,2.336,4.104
"2968","pea","bathtub",7,1,45,9.728,10,0.25,1,0,0,1.112,NA,NA,NA,NA,"bathtub",1,2.023,4.231
"2968","glue","force",18,1,80,4.183,30,0.75,1,1,1,1.032,NA,NA,NA,NA,"force",1,2.352,3.528
"2968","capital","figure",12,1,60,3.854,15,0.375,0,1,0,0.879,NA,NA,NA,NA,"SKIP",0,26.488,27.047
"2968","link","crisis",24,1,85,6.071,39,0.975,0,0,1,0.648,NA,NA,NA,NA,"crisis",1,5.263,8.024
"2968","remind","foam",37,1,80,5.784,34,0.85,0,0,1,0.759,NA,NA,NA,NA,"SKIP",0,5.192,5.728
"2968","copy","bedroom",16,1,70,6.27,24,0.6,0,1,0,0.56,NA,NA,NA,NA,"bedroom",1,3,5.096
"2968","date","laugh",13,1,60,4.551,16,0.4,0,1,0,0.888,NA,NA,NA,NA,"laugh",1,2.047,4.456
"2968","grip","beach",39,1,70,3.655,19,0.475,1,1,1,0.839,NA,NA,NA,NA,"beach",1,1.383,2.92
"2968","need","faucet",1,1,76,4.808,29,0.725,1,1,1,0.791,NA,NA,NA,NA,"faucet",1,2.384,5.136
"2968","knock","otter",2,1,10,9.519,1,0.025,1,0,0,0.654,NA,NA,NA,NA,"SKIP",0,5.136,5.648
"2968","bullet","walkway",38,1,75,6.536,28,0.7,1,1,1,0.735,NA,NA,NA,NA,"walkway",1,3.135,5.52
"2968","shrink","mafia",26,1,80,3.407,33,0.825,0,0,1,0.704,NA,NA,NA,NA,"mafia",1,1.743,3.376
"2968","find","clown",17,1,55,9.72,11,0.275,0,1,0,1.087,NA,NA,NA,NA,"SKIP",0,8.8,9.327
"2968","rock","milk",25,1,70,5.871,20,0.5,1,1,1,0.88,NA,NA,NA,NA,"milk",1,1.552,3.504
"2968","bleach","ruin",30,1,70,5.063,22,0.55,1,1,1,1.296,NA,NA,NA,NA,"ruins",0,2.017,3.577
"2968","chicken","beet",28,1,60,4.864,17,0.425,0,1,0,0.767,NA,NA,NA,NA,"beet",1,2.535,7.151
"3109","anger","decay",40,1,28,4.272,11,0.275,0,1,0,1.448,NA,NA,NA,NA,"joker",0,17.867,21.132
"3109","smother","surgery",17,1,74,2.208,26,0.65,1,0,0,1.468,NA,NA,NA,NA,"skirt",0,12.496,15.287
"3109","risk","zero",34,1,27,2.971,10,0.25,0,1,0,1.301,NA,NA,NA,NA,"annoy",0,10.243,12.513
"3109","bullet","walkway",23,1,68,2.167,20,0.5,0,0,1,2.044,NA,NA,NA,NA,"nerve",0,12.596,14.859
"3109","replace","roach",12,1,84,2.343,36,0.9,1,1,1,2.128,NA,NA,NA,NA,"bumper",0,3.452,6.354
"3109","shrink","mafia",18,1,76,4.196,29,0.725,1,1,1,1.985,NA,NA,NA,NA,"need",0,15.244,16.89
"3109","want","ascent",4,1,82,18.112,35,0.875,1,0,0,2.148,NA,NA,NA,NA,"glue",0,8.634,10.73
"3109","fan","feature",19,1,76,2.683,28,0.7,1,1,1,1.393,NA,NA,NA,NA,"pork",0,5.056,9.088
"3109","biology","temper",6,1,27,7.128,9,0.225,0,1,0,1.33,NA,NA,NA,NA,"science",0,7.76,10.481
"3109","banner","glide",10,1,78,3.453,30,0.75,1,0,0,1.983,NA,NA,NA,NA,"feature",0,10.864,15.21
"3109","collect","loyalty",1,1,17,4.059,5,0.125,0,1,0,1.485,NA,NA,NA,NA,"worm",0,4.304,5.647
"3109","glue","force",32,1,74,3.083,27,0.675,0,0,1,1.184,NA,NA,NA,NA,"force",1,12.098,14.528
"3109","knock","otter",37,1,16,3.987,4,0.1,0,1,0,1.04,NA,NA,NA,NA,"want",0,13.783,15.697
"3109","date","laugh",39,1,16,3.388,3,0.075,0,1,0,1.371,NA,NA,NA,NA,"decay",0,10.333,12.677
"3109","remind","foam",30,1,20,3.452,7,0.175,0,1,0,2.144,NA,NA,NA,NA,"climax",0,5.886,12.702
"3109","caring","skirt",7,1,99,4.454,40,1,1,1,1,1.25,NA,NA,NA,NA,"skirt",1,18.891,20.955
"3109","bleach","ruin",31,1,31,5.434,14,0.35,1,0,0,1.688,NA,NA,NA,NA,"milk",0,34.487,35.702
"3109","mill","feast",25,1,81,2.923,34,0.85,1,1,1,2.121,NA,NA,NA,NA,"banner",0,10.379,12.587
"3109","port","cinema",33,1,68,2.409,19,0.475,0,0,1,1.734,NA,NA,NA,NA,"Feast",0,10.9,12.929
"3109","climax","saucer",20,1,31,3.202,13,0.325,1,0,0,1.02,NA,NA,NA,NA,"saucer",1,49.741,52.274
"3109","need","faucet",5,1,9,5.165,2,0.05,0,1,0,0.932,NA,NA,NA,NA,"faucet",1,15.49,18.619
"3109","forest","knob",26,1,65,2.656,18,0.45,0,0,1,1.098,NA,NA,NA,NA,"weed",0,3.067,4.421
"3109","capital","figure",27,1,78,3.217,32,0.8,1,0,0,1.529,NA,NA,NA,NA,"figure",1,21.315,24.134
"3109","calf","annoy",22,1,32,4.756,15,0.375,1,0,0,2.09,NA,NA,NA,NA,"laugh",0,8.586,10.528
"3109","pork","emperor",3,1,57,3.099,17,0.425,0,0,1,0.956,NA,NA,NA,NA,"sirloin",0,2.226,6.256
"3109","bias","sirloin",28,1,18,16.131,6,0.15,0,1,0,2.045,NA,NA,NA,NA,"copy",0,5.059,7.018
"3109","grip","beach",21,1,69,2.942,21,0.525,0,0,1,1.087,NA,NA,NA,NA,"beach",1,27.875,30.175
"3109","copy","bedroom",11,1,79,3.645,33,0.825,1,1,1,1.196,NA,NA,NA,NA,"bedroom",1,8.432,11.373
"3109","rock","milk",24,1,71,3.981,22,0.55,0,0,1,2.091,NA,NA,NA,NA,"solid",0,3.219,5.706
"3109","bacon","feud",2,1,86,3.592,37,0.925,1,1,1,1.079,NA,NA,NA,NA,"pork",0,2.916,5.618
"3109","fee","chowder",29,1,93,4.311,39,0.975,1,1,1,2.53,NA,NA,NA,NA,"date",0,5.796,7.442
"3109","chicken","beet",15,1,92,7.356,38,0.95,1,1,1,3.704,NA,NA,NA,NA,"dinner",0,1.868,4.43
"3109","process","joker",14,1,71,3.584,23,0.575,0,0,1,1.207,NA,NA,NA,NA,"port",0,8.829,12.836
"3109","find","clown",38,1,1,7.675,1,0.025,0,0,1,12.477,NA,NA,NA,NA,"access",0,9.547,12.739
"3109","nerve","bumper",13,1,29,2.784,12,0.3,1,0,0,1.541,NA,NA,NA,NA,"bumper",1,21.02,23.334
"3109","prison","loaf",8,1,73,2.237,25,0.625,0,0,1,0.866,NA,NA,NA,NA,"suit",0,4.96,6.682
"3109","pea","bathtub",36,1,56,22.738,16,0.4,1,0,0,10.239,NA,NA,NA,NA,"grip",0,19.158,21.785
"3109","visit","glove",35,1,26,3.759,8,0.2,0,1,0,1.714,NA,NA,NA,NA,"bullet",0,6.165,9.138
"3109","plant","worm",9,1,72,2.387,24,0.6,1,0,0,1.155,NA,NA,NA,NA,"chowder ",0,2.375,6.317
"3109","link","crisis",16,1,78,7.172,31,0.775,1,1,1,2.124,NA,NA,NA,NA,"walkway",0,6.105,9.574
"3202","find","clown",25,1,64,3.054,29,0.725,1,1,1,0.853,NA,NA,NA,NA,"SKIP",0,3.711,5.011
"3202","grip","beach",17,1,25,2.578,6,0.15,1,0,0,0.583,NA,NA,NA,NA,"bar",0,2.762,3.232
"3202","calf","annoy",38,1,63,2.977,28,0.7,1,1,1,1.064,NA,NA,NA,NA,"hair",0,1.596,2.075
"3202","need","faucet",29,1,60,2.497,25,0.625,1,1,1,0.651,NA,NA,NA,NA,"want",0,1.528,2.082
"3202","date","laugh",28,1,100,1.754,40,1,0,0,1,0.645,NA,NA,NA,NA,"pear",0,2.498,2.975
"3202","collect","loyalty",6,1,57,3.027,23,0.575,1,1,1,0.687,NA,NA,NA,NA,"note",0,2.937,3.545
"3202","rock","milk",15,1,35,8.647,11,0.275,0,1,0,0.552,NA,NA,NA,NA,"mouth",0,3.423,4.12
"3202","remind","foam",1,1,36,1.903,12,0.3,1,1,1,0.517,NA,NA,NA,NA,"SKIP",0,1.702,2.517
"3202","biology","temper",5,1,25,2.913,4,0.1,1,0,0,0.739,NA,NA,NA,NA,"SKIP",0,2.932,3.792
"3202","caring","skirt",21,1,40,2.265,17,0.425,0,1,0,0.512,NA,NA,NA,NA,"SKIP",0,5.291,6.424
"3202","link","crisis",24,1,74,3.291,31,0.775,0,0,1,4.34,NA,NA,NA,NA,"assault",0,4.112,5.946
"3202","capital","figure",31,1,100,2.741,39,0.975,0,0,1,0.765,NA,NA,NA,NA,"figure",1,1.641,2.944
"3202","smother","surgery",2,1,37,3.166,13,0.325,0,1,0,0.653,NA,NA,NA,NA,"grass",0,6.231,8.822
"3202","process","joker",16,1,66,2.396,30,0.75,1,1,1,0.598,NA,NA,NA,NA,"SKIP",0,1.528,2.226
"3202","copy","bedroom",10,1,22,2.347,3,0.075,1,0,0,0.685,NA,NA,NA,NA,"paste",0,1.677,2.871
"3202","bacon","feud",26,1,97,3.046,38,0.95,0,0,1,0.684,NA,NA,NA,NA,"fued",0,6.824,7.478
"3202","prison","loaf",32,1,45,2.738,20,0.5,1,1,1,0.605,NA,NA,NA,NA,"guard",0,2.613,3.334
"3202","glue","force",20,1,43,4.276,19,0.475,1,1,1,0.587,NA,NA,NA,NA,"SKIP",0,3.953,5.001
"3202","climax","saucer",11,1,92,2.199,36,0.9,0,0,1,0.931,NA,NA,NA,NA,"theatre",0,3.429,4.929
"3202","nerve","bumper",23,1,54,2.264,21,0.525,1,1,1,0.515,NA,NA,NA,NA,"bundle",0,1.95,2.785
"3202","plant","worm",35,1,58,3.759,24,0.6,0,1,0,1.139,NA,NA,NA,NA,"pot",0,2.522,2.922
"3202","fan","feature",8,1,27,3.392,7,0.175,1,0,0,0.839,NA,NA,NA,NA,"blade",0,1.928,2.725
"3202","chicken","beet",37,1,61,3.049,26,0.65,0,1,0,0.731,NA,NA,NA,NA,"SKIP",0,2.965,3.608
"3202","port","cinema",22,1,86,5.9,33,0.825,0,0,1,0.828,NA,NA,NA,NA,"dock",0,2.548,3.069
"3202","mill","feast",27,1,15,3.431,1,0.025,1,0,0,0.572,NA,NA,NA,NA,"SKIP",0,4.61,5.463
"3202","bias","sirloin",40,1,38,2.745,14,0.35,0,1,0,0.582,NA,NA,NA,NA,"bard",0,6.263,7.081
"3202","forest","knob",34,1,20,4.642,2,0.05,1,0,0,1.059,NA,NA,NA,NA,"face",0,1.85,2.43
"3202","knock","otter",18,1,31,2.626,9,0.225,1,0,0,0.602,NA,NA,NA,NA,"wood",0,1.717,2.289
"3202","replace","roach",14,1,61,3.131,27,0.675,0,1,0,0.885,NA,NA,NA,NA,"leg",0,3.204,3.622
"3202","want","ascent",3,1,25,4.644,5,0.125,1,0,0,0.572,NA,NA,NA,NA,"need",0,1.36,1.904
"3202","fee","chowder",7,1,56,7.975,22,0.55,0,1,0,0.644,NA,NA,NA,NA,"pay",0,1.937,2.394
"3202","pea","bathtub",36,1,31,2.728,8,0.2,1,0,0,0.571,NA,NA,NA,NA,"body",0,1.304,1.865
"3202","risk","zero",30,1,43,2.467,18,0.45,0,1,0,0.633,NA,NA,NA,NA,"reward",0,1.691,2.6
"3202","bleach","ruin",4,1,40,2.739,16,0.4,0,1,0,0.59,NA,NA,NA,NA,"pod",0,6.403,6.806
"3202","anger","decay",13,1,89,3.337,35,0.875,0,0,1,0.819,NA,NA,NA,NA,"rage",0,1.545,2.118
"3202","banner","glide",19,1,39,1.953,15,0.375,1,1,1,0.589,NA,NA,NA,NA,"wave",0,1.467,2.217
"3202","bullet","walkway",9,1,79,4.594,32,0.8,0,0,1,9.632,NA,NA,NA,NA,"path",0,18.249,18.931
"3202","visit","glove",33,1,33,3.099,10,0.25,1,0,0,0.804,NA,NA,NA,NA,"mountain",0,2.157,3.534
"3202","pork","emperor",39,1,88,7.055,34,0.85,0,0,1,1.081,NA,NA,NA,NA,"emperor",1,2.3,3.171
"3202","shrink","mafia",12,1,95,2.976,37,0.925,0,0,1,1.019,NA,NA,NA,NA,"tube",0,10.556,11.087
"3260","link","crisis",20,1,70,4.582,35,0.875,0,0,1,2.071,NA,NA,NA,NA,"gate",0,36.003,40.29
"3260","bleach","ruin",23,1,63,1.735,9,0.225,1,0,0,0.671,NA,NA,NA,NA,"burn",0,283.334,288.87
"3260","anger","decay",32,1,65,1.311,19,0.475,0,1,0,0.847,NA,NA,NA,NA,"decay",1,5.617,9.521
"3260","smother","surgery",39,1,67,2.687,26,0.65,0,0,1,0.687,NA,NA,NA,NA,"chain",0,72.398,75.678
"3260","biology","temper",15,1,57,1.599,2,0.05,1,0,0,0.888,NA,NA,NA,NA,"temper",1,82.011,85.85
"3260","risk","zero",6,1,65,1.919,18,0.45,1,0,0,0.943,NA,NA,NA,NA,"zero",1,20.459,24.054
"3260","plant","worm",14,1,67,2.271,30,0.75,0,1,0,0.927,NA,NA,NA,NA,"worm",1,32.946,36.703
"3260","climax","saucer",1,1,57,1.838,1,0.025,1,1,1,0.975,NA,NA,NA,NA,"saucer",1,21.17,25.025
"3260","need","faucet",21,1,65,1.751,21,0.525,0,1,0,0.783,NA,NA,NA,NA,"fail",0,19.023,22.517
"3260","port","cinema",8,1,65,1.439,20,0.5,0,1,0,0.791,NA,NA,NA,NA,"redds",0,15.529,19.983
"3260","shrink","mafia",31,1,65,1.695,22,0.55,0,1,0,0.743,NA,NA,NA,NA,"mafia",1,25.281,29.682
"3260","replace","roach",26,1,69,2.311,32,0.8,0,0,1,0.872,NA,NA,NA,NA,"roach",1,8.994,13.663
"3260","bias","sirloin",30,1,63,2.006,11,0.275,1,0,0,0.615,NA,NA,NA,NA,"common",0,9.333,16.621
"3260","chicken","beet",2,1,67,1.424,29,0.725,0,1,0,1.207,NA,NA,NA,NA,"beet",1,16.346,19.025
"3260","glue","force",11,1,63,1.887,6,0.15,1,1,1,1.495,NA,NA,NA,NA,"peep",0,25.015,38.766
"3260","pork","emperor",5,1,66,2.727,24,0.6,1,1,1,0.839,NA,NA,NA,NA,"emperor",1,5.439,14.721
"3260","nerve","bumper",9,1,66,2.271,23,0.575,1,1,1,1.303,NA,NA,NA,NA,"bumper",1,16.36,21.272
"3260","collect","loyalty",13,1,63,1.679,8,0.2,1,0,0,0.767,NA,NA,NA,NA,"scatter",0,47.238,52.059
"3260","want","ascent",10,1,75,6.43,40,1,0,0,1,13.774,NA,NA,NA,NA,"ascent",1,7.854,12.335
"3260","prison","loaf",35,1,65,2.319,15,0.375,1,1,1,0.727,NA,NA,NA,NA,"loaf",1,20.286,24.022
"3260","bacon","feud",12,1,61,2.847,4,0.1,1,0,0,0.808,NA,NA,NA,NA,"fend",0,18.033,21.737
"3260","process","joker",17,1,74,1.502,38,0.95,0,0,1,1.007,NA,NA,NA,NA,"jocker",0,9.614,18.867
"3260","grip","beach",3,1,68,1.679,31,0.775,0,1,0,2.663,NA,NA,NA,NA,"beach",1,4.363,8.536
"3260","find","clown",19,1,67,2.295,27,0.675,0,0,1,1.671,NA,NA,NA,NA,"clawn",0,9.49,14.077
"3260","remind","foam",33,1,65,1.527,16,0.4,1,0,0,1.719,NA,NA,NA,NA,"forge",0,14.209,18.251
"3260","knock","otter",27,1,67,1.702,25,0.625,0,0,1,1.263,NA,NA,NA,NA,"fork",0,12.946,16.752
"3260","caring","skirt",37,1,64,1.909,12,0.3,1,1,1,1.023,NA,NA,NA,NA,"risk",0,20.196,24.322
"3260","copy","bedroom",40,1,63,1.967,5,0.125,1,1,1,0.967,NA,NA,NA,NA,"bedroom",1,50.994,54.758
"3260","mill","feast",18,1,65,2.063,17,0.425,1,0,0,0.615,NA,NA,NA,NA,"feast",1,10.308,13.392
"3260","capital","figure",38,1,70,1.807,37,0.925,0,0,1,0.671,NA,NA,NA,NA,"figure",1,9.195,13.278
"3260","bullet","walkway",7,1,70,1.967,36,0.9,0,0,1,17.639,NA,NA,NA,NA,"walkaway",0,9.38,16.752
"3260","calf","annoy",16,1,65,2.36,14,0.35,1,1,1,0.998,NA,NA,NA,NA,"annoy",1,9.273,13.201
"3260","pea","bathtub",34,1,69,7.328,33,0.825,0,1,0,1.751,NA,NA,NA,NA,"bathtub",1,10.617,499.306
"3260","visit","glove",4,1,61,1.543,3,0.075,1,1,1,0.839,NA,NA,NA,NA,"glove",1,22.036,28.659
"3260","fan","feature",22,1,64,1.991,13,0.325,1,0,0,0.983,NA,NA,NA,NA,"feature",1,45.857,50.707
"3260","rock","milk",36,1,74,3.775,39,0.975,0,1,0,0.719,NA,NA,NA,NA,"tub",0,178.86,181.284
"3260","forest","knob",28,1,69,1.495,34,0.85,0,1,0,0.751,NA,NA,NA,NA,"knob",1,188.379,191.688
"3260","banner","glide",25,1,67,1.798,28,0.7,0,0,1,1.079,NA,NA,NA,NA,"glide",1,6.093,9.672
"3260","fee","chowder",24,1,63,1.983,10,0.25,1,0,0,0.575,NA,NA,NA,NA,"chowder",1,28.42,32.831
"3260","date","laugh",29,1,63,3.047,7,0.175,1,1,1,0.767,NA,NA,NA,NA,"laugh",1,4.65,10.631
"3399","anger","decay",5,1,14,10.363,13,0.325,1,0,0,2.154,NA,NA,NA,NA,"skip",0,18.995,20.362
"3399","visit","glove",15,1,12,1.766,11,0.275,1,0,0,1.48,NA,NA,NA,NA,"skip",0,9.935,12.8
"3399","caring","skirt",27,1,30,2.691,36,0.9,1,1,1,0.662,NA,NA,NA,NA,"glove",0,7.375,9.976
"3399","chicken","beet",7,1,16,44.668,16,0.4,1,0,0,0.931,NA,NA,NA,NA,"beet",1,5.765,8.022
"3399","date","laugh",38,1,23,4.053,29,0.725,0,0,1,0.811,NA,NA,NA,NA,"laugh",1,4.673,6.173
"3399","knock","otter",25,1,27,1.868,33,0.825,1,1,1,0.532,NA,NA,NA,NA,"otter",1,4.193,5.641
"3399","pork","emperor",21,1,18,3.112,22,0.55,1,0,0,1.349,NA,NA,NA,NA,"skip",0,3.551,4.249
"3399","glue","force",6,1,6,4.514,8,0.2,0,1,0,1.1,NA,NA,NA,NA,"force",1,15.212,20.442
"3399","risk","zero",30,1,18,1.946,21,0.525,1,0,0,0.78,NA,NA,NA,NA,"zero",1,3.025,6.432
"3399","climax","saucer",17,1,18,1.948,20,0.5,1,0,0,0.821,NA,NA,NA,NA,"skip",0,5.842,6.313
"3399","pea","bathtub",10,1,21,2.553,27,0.675,1,0,0,0.691,NA,NA,NA,NA,"skip",0,7.656,8.11
"3399","fan","feature",19,1,12,2.261,12,0.3,0,0,1,0.718,NA,NA,NA,NA,"skip",0,3.821,4.308
"3399","bullet","walkway",39,1,22,4.491,28,0.7,0,0,1,1.095,NA,NA,NA,NA,"skip",0,3.51,3.854
"3399","copy","bedroom",20,1,1,2.827,4,0.1,0,1,0,0.639,NA,NA,NA,NA,"skip",0,2.744,3.143
"3399","link","crisis",33,1,25,1.736,31,0.775,1,1,1,0.564,NA,NA,NA,NA,"crisis",1,1.768,4.332
"3399","find","clown",8,1,30,1.849,35,0.875,1,1,1,0.725,NA,NA,NA,NA,"skip",0,16.608,17.119
"3399","mill","feast",22,1,15,2.273,15,0.375,0,0,1,1.124,NA,NA,NA,NA,"skip",0,4.415,4.817
"3399","calf","annoy",2,1,31,5.468,37,0.925,1,1,1,2.096,NA,NA,NA,NA,"annoy",1,2.492,4.014
"3399","bleach","ruin",24,1,19,4.199,24,0.6,0,0,1,0.697,NA,NA,NA,NA,"ruin",1,3.994,5.344
"3399","rock","milk",13,1,38,4.362,38,0.95,1,1,1,1.116,NA,NA,NA,NA,"milk",1,1.95,3.036
"3399","nerve","bumper",32,1,8,2.624,9,0.225,0,1,0,0.652,NA,NA,NA,NA,"skip",0,5.184,5.841
"3399","bacon","feud",18,1,28,3.144,34,0.85,1,1,1,2.063,NA,NA,NA,NA,"skip",0,3.63,6.658
"3399","need","faucet",4,1,1,1.849,6,0.15,0,1,0,0.724,NA,NA,NA,NA,"skip",0,2.672,3.054
"3399","capital","figure",3,1,23,2.324,30,0.75,0,0,1,0.542,NA,NA,NA,NA,"skip",0,3.595,3.974
"3399","bias","sirloin",40,1,21,11.523,26,0.65,0,0,1,9.909,NA,NA,NA,NA,"skip",0,4.724,5.087
"3399","replace","roach",37,1,12,2.756,10,0.25,0,1,0,0.775,NA,NA,NA,NA,"skip",0,4.363,4.765
"3399","plant","worm",14,1,19,4.843,23,0.575,0,0,1,1.079,NA,NA,NA,NA,"skip",0,2.582,3.04
"3399","fee","chowder",12,1,18,3.748,18,0.45,1,0,0,1.044,NA,NA,NA,NA,"chowder",1,3.539,5.662
"3399","grip","beach",35,1,1,7.364,3,0.075,0,1,0,2.199,NA,NA,NA,NA,"skip",0,5.035,5.731
"3399","process","joker",34,1,48,4.866,40,1,1,1,1,0.718,NA,NA,NA,NA,"joker",1,2.032,3.416
"3399","forest","knob",36,1,1,13.651,1,0.025,0,1,0,2.328,NA,NA,NA,NA,"skip",0,11.913,12.427
"3399","remind","foam",9,1,20,1.961,25,0.625,1,0,0,0.686,NA,NA,NA,NA,"skip",0,4.396,4.76
"3399","biology","temper",23,1,16,4.844,17,0.425,1,0,0,1.376,NA,NA,NA,NA,"temper",1,1.812,3.437
"3399","collect","loyalty",11,1,42,6.192,39,0.975,1,1,1,1.095,NA,NA,NA,NA,"loyalty",1,4.948,7.788
"3399","banner","glide",28,1,1,9.141,2,0.05,0,1,0,1.583,NA,NA,NA,NA,"star",0,9.797,11.233
"3399","want","ascent",31,1,4,2.574,7,0.175,0,1,0,1.091,NA,NA,NA,NA,"skip",0,2.76,3.392
"3399","smother","surgery",29,1,1,2.307,5,0.125,0,1,0,0.9,NA,NA,NA,NA,"skip",0,4.037,4.395
"3399","shrink","mafia",16,1,26,1.443,32,0.8,1,1,1,0.519,NA,NA,NA,NA,"skip",0,3.719,4.135
"3399","prison","loaf",1,1,18,2.114,19,0.475,0,0,1,0.625,NA,NA,NA,NA,"skip",0,2.195,2.616
"3399","port","cinema",26,1,14,2.055,14,0.35,0,0,1,0.794,NA,NA,NA,NA,"skip",0,7.895,8.228
"3799","prison","loaf",27,1,35,1.34,33,0.825,1,1,1,0.329,NA,NA,NA,NA,"skip",0,1.512,2.901
"3799","want","ascent",1,1,12,1.595,4,0.1,0,1,0,0.546,NA,NA,NA,NA,"skip",0,0.853,1.232
"3799","process","joker",40,1,2,6.354,1,0.025,0,1,0,9.227,NA,NA,NA,NA,"skip",0,0.66,1.038
"3799","knock","otter",4,1,26,2.06,24,0.6,1,0,0,5.145,NA,NA,NA,NA,"skip",0,1.13,1.503
"3799","bullet","walkway",39,1,17,1.309,13,0.325,1,0,0,0.99,NA,NA,NA,NA,"skip",0,0.725,1.08
"3799","plant","worm",8,1,15,3.417,8,0.2,0,1,0,21.464,NA,NA,NA,NA,"skip",0,3.98,4.526
"3799","link","crisis",38,1,17,1.397,12,0.3,0,1,0,0.633,NA,NA,NA,NA,"skip",0,1.578,2.032
"3799","port","cinema",10,1,57,1.638,37,0.925,1,1,1,0.357,NA,NA,NA,NA,"entre",0,7.592,10.703
"3799","bleach","ruin",36,1,46,1.759,36,0.9,1,1,1,0.568,NA,NA,NA,NA,"skip",0,2.315,2.677
"3799","climax","saucer",11,1,31,4.178,30,0.75,1,0,0,0.606,NA,NA,NA,NA,"skip",0,0.829,1.192
"3799","find","clown",17,1,38,0.942,34,0.85,1,1,1,0.326,NA,NA,NA,NA,"skip",0,0.613,1.056
"3799","bacon","feud",30,1,12,1.152,5,0.125,0,0,1,1.529,NA,NA,NA,NA,"skip",0,2.475,2.838
"3799","rock","milk",25,1,22,3.372,19,0.475,1,0,0,0.953,NA,NA,NA,NA,"skip",0,0.777,1.159
"3799","nerve","bumper",22,1,19,0.974,15,0.375,0,0,1,0.319,NA,NA,NA,NA,"skip",0,0.85,1.23
"3799","collect","loyalty",14,1,21,0.992,18,0.45,0,0,1,0.9,NA,NA,NA,NA,"skip",0,0.577,1.022
"3799","need","faucet",32,1,23,1.976,21,0.525,0,0,1,0.831,NA,NA,NA,NA,"skip",0,0.884,1.272
"3799","copy","bedroom",5,1,24,1.198,22,0.55,0,0,1,0.318,NA,NA,NA,NA,"skip",0,0.688,2.03
"3799","banner","glide",6,1,60,1.817,38,0.95,1,1,1,0.31,NA,NA,NA,NA,"skip",0,0.754,1.214
"3799","bias","sirloin",23,1,16,3.355,10,0.25,0,1,0,1.692,NA,NA,NA,NA,"sirloin",1,1.914,2.926
"3799","smother","surgery",31,1,29,0.905,29,0.725,0,0,1,0.301,NA,NA,NA,NA,"skip",0,0.988,1.337
"3799","caring","skirt",19,1,11,1.374,2,0.05,0,1,0,0.759,NA,NA,NA,NA,"skip",0,0.747,1.668
"3799","glue","force",12,1,19,1.58,14,0.35,1,0,0,0.567,NA,NA,NA,NA,"skip",0,1.395,1.904
"3799","calf","annoy",24,1,29,3.005,28,0.7,1,0,0,1.286,NA,NA,NA,NA,"skip",0,0.222,2.309
"3799","grip","beach",3,1,22,9.565,20,0.5,1,0,0,1.87,NA,NA,NA,NA,"skip",0,0.926,2.57
"3799","mill","feast",26,1,14,1.109,7,0.175,0,0,1,0.309,NA,NA,NA,NA,"skip",0,0.633,3.025
"3799","visit","glove",16,1,21,2.591,17,0.425,0,0,1,0.605,NA,NA,NA,NA,"skip",0,0.558,0.909
"3799","chicken","beet",20,1,27,2.286,26,0.65,1,0,0,2.99,NA,NA,NA,NA,"skip",0,0.523,0.851
"3799","capital","figure",35,1,15,1.493,9,0.225,0,1,0,0.633,NA,NA,NA,NA,"skip",0,0.927,2.032
"3799","forest","knob",34,1,31,1.148,31,0.775,1,1,1,0.27,NA,NA,NA,NA,"skip",0,0.651,2.155
"3799","anger","decay",21,1,17,7.452,11,0.275,0,1,0,0.764,NA,NA,NA,NA,"skip",0,0.516,1.513
"3799","date","laugh",29,1,74,4.869,39,0.975,1,1,1,1.455,NA,NA,NA,NA,"skip",0,0.706,1.786
"3799","fan","feature",18,1,25,1.512,23,0.575,1,0,0,0.53,NA,NA,NA,NA,"skip",0,0.536,4.065
"3799","replace","roach",37,1,13,2.139,6,0.15,0,1,0,0.666,NA,NA,NA,NA,"skip",0,0.654,1.116
"3799","pea","bathtub",28,1,86,1.679,40,1,1,1,1,0.374,NA,NA,NA,NA,"bath",0,0.582,3.047
"3799","remind","foam",9,1,26,0.846,25,0.625,0,0,1,0.334,NA,NA,NA,NA,"skip",0,1.013,1.485
"3799","shrink","mafia",15,1,31,0.99,32,0.8,1,1,1,0.383,NA,NA,NA,NA,"skip",0,0.534,0.973
"3799","biology","temper",2,1,12,1.8,3,0.075,0,1,0,0.692,NA,NA,NA,NA,"skip",0,0.517,0.844
"3799","pork","emperor",13,1,44,1.518,35,0.875,1,1,1,0.383,NA,NA,NA,NA,"skip",0,0.508,0.972
"3799","risk","zero",7,1,28,1.104,27,0.675,0,0,1,0.43,NA,NA,NA,NA,"skip",0,0.494,0.92
"3799","fee","chowder",33,1,21,4.029,16,0.4,1,0,0,0.758,NA,NA,NA,NA,"skip",0,0.515,0.9
"4019","rock","milk",36,1,2,4.86,4,0.1,0,0,1,0.85,NA,NA,NA,NA,"milk",1,6.456,9.332
"4019","shrink","mafia",18,1,10,19.556,27,0.675,1,0,0,8.883,NA,NA,NA,NA,"glove",0,3.922,10.677
"4019","date","laugh",21,1,5,6.34,19,0.475,1,0,0,1.117,NA,NA,NA,NA,"bridge",0,12.023,15.95
"4019","process","joker",34,1,2,8.259,1,0.025,0,1,0,1.364,NA,NA,NA,NA,"hand",0,14.631,19.218
"4019","biology","temper",23,1,5,12.95,11,0.275,0,1,0,5.351,NA,NA,NA,NA,"science",0,8.114,11.642
"4019","nerve","bumper",22,1,5,4.904,17,0.425,1,0,0,1.119,NA,NA,NA,NA,"brain",0,5.118,7.667
"4019","prison","loaf",1,1,30,8.226,34,0.85,1,1,1,1.153,NA,NA,NA,NA,"loaf",1,3.219,5.745
"4019","fan","feature",28,1,5,5.986,14,0.35,0,1,0,1.057,NA,NA,NA,NA,"home",0,7.087,9.603
"4019","plant","worm",11,1,7,3.35,24,0.6,0,0,1,1.081,NA,NA,NA,NA,"worm",1,10.697,13.799
"4019","bleach","ruin",8,1,10,19.01,29,0.725,1,0,0,1.82,NA,NA,NA,NA,"white",0,15.987,18.728
"4019","bacon","feud",29,1,5,5.778,16,0.4,0,1,0,0.955,NA,NA,NA,NA,"burger",0,3.666,7.152
"4019","port","cinema",17,1,15,15.729,32,0.8,1,0,0,1.145,NA,NA,NA,NA,"air",0,10.327,12.317
"4019","find","clown",7,1,5,9.036,10,0.25,0,1,0,3.461,NA,NA,NA,NA,"find",0,10.168,17.396
"4019","link","crisis",39,1,30,9.327,35,0.875,1,1,1,1.111,NA,NA,NA,NA,"milk",0,3.75,9.834
"4019","banner","glide",38,1,7,5.529,23,0.575,0,0,1,1.038,NA,NA,NA,NA,"glide",1,7.339,10.025
"4019","smother","surgery",35,1,14,8.846,30,0.75,1,1,1,1.241,NA,NA,NA,NA,"shelter",0,8.202,11.367
"4019","chicken","beet",32,1,30,11.749,37,0.925,1,1,1,1.007,NA,NA,NA,NA,"eggs",0,15.906,17.941
"4019","glue","force",12,1,5,8.988,9,0.225,0,1,0,1.619,NA,NA,NA,NA,"tape",0,20.672,22.702
"4019","mill","feast",26,1,30,11.249,33,0.825,1,1,1,1.293,NA,NA,NA,NA,"feast",1,4.394,6.726
"4019","need","faucet",30,1,6,4.781,21,0.525,0,0,1,0.907,NA,NA,NA,NA,"read",0,5.165,8.417
"4019","forest","knob",16,1,3,18.636,7,0.175,0,1,0,21.722,NA,NA,NA,NA,"tree",0,4.203,8.118
"4019","capital","figure",2,1,5,7.546,12,0.3,0,1,0,1.135,NA,NA,NA,NA,"money",0,4.969,11.871
"4019","bias","sirloin",20,1,2,4.903,6,0.15,0,0,1,0.943,NA,NA,NA,NA,"error",0,4.516,6.882
"4019","anger","decay",19,1,2,3.179,3,0.075,0,0,1,0.989,NA,NA,NA,NA,"mad",0,2.888,4.966
"4019","collect","loyalty",27,1,5,4.081,13,0.325,0,1,0,1.292,NA,NA,NA,NA,"coins",0,6.904,9.932
"4019","remind","foam",31,1,6,3.757,22,0.55,0,0,1,0.99,NA,NA,NA,NA,"recall",0,6.991,12.925
"4019","pork","emperor",9,1,30,13.389,36,0.9,1,1,1,0.93,NA,NA,NA,NA,"throne",0,6.711,12.497
"4019","visit","glove",5,1,5,7.72,20,0.5,1,0,0,1.07,NA,NA,NA,NA,"room",0,9.484,12.677
"4019","replace","roach",13,1,3,3.725,8,0.2,0,0,1,1.047,NA,NA,NA,NA,"red",0,10.106,11.948
"4019","caring","skirt",6,1,35,7.637,39,0.975,1,1,1,1.143,NA,NA,NA,NA,"skirt",1,4.382,7.937
"4019","want","ascent",37,1,2,4.128,2,0.05,0,0,1,0.942,NA,NA,NA,NA,"like",0,3.135,7.037
"4019","bullet","walkway",40,1,5,4.34,18,0.45,1,0,0,1.104,NA,NA,NA,NA,"gun",0,8.667,10.668
"4019","fee","chowder",25,1,5,5.213,15,0.375,0,1,0,1.105,NA,NA,NA,NA,"cost",0,5.586,8.598
"4019","risk","zero",14,1,60,10.046,40,1,1,1,1,1.434,NA,NA,NA,NA,"zero",1,3.321,5.363
"4019","climax","saucer",24,1,10,11.915,28,0.7,1,0,0,1.686,NA,NA,NA,NA,"climate",0,2.08,4.485
"4019","knock","otter",4,1,2,4.074,5,0.125,0,0,1,0.892,NA,NA,NA,NA,"door",0,2.669,5.52
"4019","grip","beach",33,1,15,9.909,31,0.775,1,0,0,1.947,NA,NA,NA,NA,"hand",0,2.711,4.589
"4019","copy","bedroom",3,1,30,6.198,38,0.95,1,1,1,2.449,NA,NA,NA,NA,"bedroom",1,2.17,4.977
"4019","pea","bathtub",10,1,9,4.746,26,0.65,1,1,1,0.86,NA,NA,NA,NA,"nut",0,2.049,4.379
"4019","calf","annoy",15,1,8,211.091,25,0.625,1,0,0,1.552,NA,NA,NA,NA,"cow",0,4.928,6.501
"4191","fee","chowder",19,1,36,5.534,19,0.475,1,0,0,1.081,NA,NA,NA,NA,"service",0,14.367,18.283
"4191","need","faucet",35,1,22,3.721,3,0.075,0,1,0,1.236,NA,NA,NA,NA,"girl",0,49.508,53.231
"4191","grip","beach",22,1,26,7.227,7,0.175,0,1,0,1.305,NA,NA,NA,NA,"beach",1,19.659,25.413
"4191","port","cinema",29,1,44,6.305,23,0.575,0,0,1,1.213,NA,NA,NA,NA,"cinema",1,15.769,24.057
"4191","chicken","beet",17,1,81,6.086,36,0.9,1,1,1,0.746,NA,NA,NA,NA,"beet",1,2.172,4.263
"4191","capital","figure",4,1,53,5.987,24,0.6,1,0,0,1.523,NA,NA,NA,NA,"dictator",0,35.796,41.551
"4191","knock","otter",28,1,44,12.957,22,0.55,1,0,0,0.825,NA,NA,NA,NA,"heads",0,13.215,16.166
"4191","mill","feast",1,1,32,2.831,16,0.4,0,0,1,1.137,NA,NA,NA,NA,"feast",1,9.01,23.031
"4191","find","clown",31,1,32,4.132,15,0.375,0,1,0,1.143,NA,NA,NA,NA,"glove",0,26.006,29.557
"4191","rock","milk",13,1,60,3.307,26,0.65,0,0,1,1.322,NA,NA,NA,NA,"milk",1,7.725,11.59
"4191","fan","feature",24,1,43,8.64,21,0.525,1,0,0,2.515,NA,NA,NA,NA,"fury",0,3.64,6.008
"4191","link","crisis",30,1,28,2.591,10,0.25,0,0,1,1.002,NA,NA,NA,NA,"panic",0,19.567,24.243
"4191","pea","bathtub",26,1,92,4.469,39,0.975,1,1,1,1.611,NA,NA,NA,NA,"bathtub",1,3.087,7.473
"4191","banner","glide",7,1,66,6.976,31,0.775,1,1,1,1.68,NA,NA,NA,NA,"glide",1,3.819,7.705
"4191","caring","skirt",5,1,33,6.656,17,0.425,0,0,1,1.307,NA,NA,NA,NA,"skirt",1,9.233,13.412
"4191","remind","foam",38,1,30,4.196,14,0.35,0,0,1,1.345,NA,NA,NA,NA,"ocean",0,44.738,49.992
"4191","collect","loyalty",34,1,30,4.975,11,0.275,0,1,0,1.166,NA,NA,NA,NA,"loyalty",1,11.663,15.451
"4191","shrink","mafia",3,1,28,6.187,9,0.225,0,0,1,2.046,NA,NA,NA,NA,"mafia",1,3.524,6.615
"4191","replace","roach",11,1,40,5.916,20,0.5,1,0,0,0.714,NA,NA,NA,NA,"poster",0,46.288,49.127
"4191","copy","bedroom",36,1,22,7.242,2,0.05,0,1,0,1.158,NA,NA,NA,NA,"bedroom",1,8.882,16.004
"4191","bacon","feud",33,1,62,11.517,28,0.7,1,0,0,2.054,NA,NA,NA,NA,"spices",0,24.905,28.861
"4191","bleach","ruin",8,1,85,10.231,38,0.95,1,1,1,1.643,NA,NA,NA,NA,"ruin",1,5.504,8.088
"4191","glue","force",20,1,70,3.926,33,0.825,1,1,1,1.795,NA,NA,NA,NA,"force",1,2.979,11.067
"4191","risk","zero",18,1,28,5.867,8,0.2,0,1,0,1.354,NA,NA,NA,NA,"zero",1,30.916,34.342
"4191","prison","loaf",37,1,65,7.355,30,0.75,1,1,1,0.909,NA,NA,NA,NA,"loaf",1,5.386,9.124
"4191","bullet","walkway",14,1,77,5.739,35,0.875,1,1,1,1.246,NA,NA,NA,NA,"walkway",1,1.789,5.103
"4191","climax","saucer",23,1,34,7.044,18,0.45,1,0,0,2.124,NA,NA,NA,NA,"circus",0,28.454,35.485
"4191","nerve","bumper",15,1,20,4.982,1,0.025,0,0,1,1.119,NA,NA,NA,NA,"bumper",1,27.839,35.473
"4191","smother","surgery",16,1,82,5.499,37,0.925,1,1,1,1.109,NA,NA,NA,NA,"surgery",1,2.638,15.119
"4191","forest","knob",6,1,95,4.443,40,1,1,1,1,1.898,NA,NA,NA,NA,"knob",1,2.441,4.755
"4191","date","laugh",25,1,61,5.011,27,0.675,0,0,1,1.097,NA,NA,NA,NA,"funny",0,51.187,67.712
"4191","biology","temper",39,1,76,11.429,34,0.85,1,1,1,6.12,NA,NA,NA,NA,"temper",1,2.148,6.918
"4191","want","ascent",10,1,22,2.505,5,0.125,0,0,1,2.153,NA,NA,NA,NA,"ascend",0,7.719,15.697
"4191","bias","sirloin",27,1,30,8.229,13,0.325,0,1,0,1.049,NA,NA,NA,NA,"sirloin",1,6.852,10.347
"4191","process","joker",2,1,26,8.037,6,0.15,0,1,0,1.227,NA,NA,NA,NA,"joker",1,36.041,39.426
"4191","pork","emperor",40,1,55,17.865,25,0.625,1,0,0,23.487,NA,NA,NA,NA,"bellies",0,6.279,12.578
"4191","anger","decay",9,1,22,3.182,4,0.1,0,1,0,1.011,NA,NA,NA,NA,"decay",1,26.042,39.751
"4191","plant","worm",12,1,70,5.815,32,0.8,1,0,0,1.836,NA,NA,NA,NA,"worm",1,7.156,10.376
"4191","calf","annoy",32,1,63,7.351,29,0.725,1,0,0,1.275,NA,NA,NA,NA,"annoy",1,13.027,16.379
"4191","visit","glove",21,1,30,3.844,12,0.3,0,1,0,1.406,NA,NA,NA,NA,"planet",0,9.498,56.373
"4214","biology","temper",15,1,1,1.638,21,0.525,1,1,1,0.631,NA,NA,NA,NA,"temper",1,3.501,5.412
"4214","rock","milk",24,1,1,1.55,25,0.625,1,1,1,1.255,NA,NA,NA,NA,"SKIP",0,2.092,2.895
"4214","bias","sirloin",27,1,1,2.006,32,0.8,0,0,1,1.015,NA,NA,NA,NA,"SKIP",0,24.437,24.99
"4214","climax","saucer",9,1,1,1.846,26,0.65,1,1,1,0.91,NA,NA,NA,NA,"SKIP",0,1.483,1.951
"4214","replace","roach",2,1,1,1.279,13,0.325,0,1,0,0.71,NA,NA,NA,NA,"SKIP",0,1.195,1.639
"4214","capital","figure",6,1,1,4.895,3,0.075,1,0,0,0.862,NA,NA,NA,NA,"figure",1,1.999,4.224
"4214","date","laugh",34,1,1,3.135,4,0.1,1,0,0,0.974,NA,NA,NA,NA,"SKIP",0,1.272,1.702
"4214","bleach","ruin",10,1,1,2.983,23,0.575,1,1,1,0.614,NA,NA,NA,NA,"SKIP",0,2.084,2.676
"4214","link","crisis",18,1,1,12.254,14,0.35,0,1,0,1.087,NA,NA,NA,NA,"SKIP",0,0.845,1.226
"4214","copy","bedroom",40,1,1,1.926,8,0.2,1,0,0,0.951,NA,NA,NA,NA,"SKIP",0,0.996,2.647
"4214","plant","worm",29,1,100,10.286,35,0.875,0,1,0,1.238,NA,NA,NA,NA,"worm",1,7.654,9.598
"4214","chicken","beet",17,1,1,38.453,1,0.025,1,0,0,18.197,NA,NA,NA,NA,"beet",1,5.682,6.816
"4214","anger","decay",39,1,100,4.167,37,0.925,0,0,1,1.022,NA,NA,NA,NA,"decay",1,1.657,3.127
"4214","calf","annoy",38,1,100,2.359,40,1,0,0,1,0.702,NA,NA,NA,NA,"SKIP",0,1.625,2.111
"4214","smother","surgery",12,1,100,3.646,36,0.9,0,1,0,0.807,NA,NA,NA,NA,"sugary",0,2.849,5.863
"4214","remind","foam",19,1,1,2.166,20,0.5,1,1,1,0.783,NA,NA,NA,NA,"SKIP",0,0.985,1.439
"4214","grip","beach",14,1,76,9.536,34,0.85,0,1,0,1.151,NA,NA,NA,NA,"SKIP",0,0.787,1.199
"4214","fee","chowder",7,1,1,4.693,2,0.05,1,1,1,6.167,NA,NA,NA,NA,"SKIP",0,0.797,1.286
"4214","visit","glove",16,1,1,1.526,31,0.775,0,0,1,0.718,NA,NA,NA,NA,"SKIP",0,0.859,1.23
"4214","forest","knob",3,1,1,5.638,22,0.55,1,1,1,0.934,NA,NA,NA,NA,"SKIP",0,0.793,1.215
"4214","bacon","feud",13,1,1,1.79,28,0.7,0,0,1,0.703,NA,NA,NA,NA,"SKIP",0,0.733,1.119
"4214","fan","feature",8,1,1,1.807,5,0.125,1,0,0,0.894,NA,NA,NA,NA,"SKIP",0,0.789,1.206
"4214","process","joker",1,1,1,1.774,18,0.45,0,1,0,0.822,NA,NA,NA,NA,"SKIP",0,0.824,1.215
"4214","want","ascent",32,1,1,1.966,12,0.3,0,1,0,1.109,NA,NA,NA,NA,"SKIP",0,0.743,1.159
"4214","banner","glide",36,1,1,1.576,17,0.425,0,1,0,0.718,NA,NA,NA,NA,"SKIP",0,0.842,1.239
"4214","collect","loyalty",4,1,1,1.47,33,0.825,0,0,1,0.71,NA,NA,NA,NA,"SKIP",0,0.83,1.344
"4214","pork","emperor",26,1,100,2.502,38,0.95,0,0,1,0.67,NA,NA,NA,NA,"emperor",1,1.646,4.205
"4214","mill","feast",22,1,1,1.654,29,0.725,0,0,1,0.903,NA,NA,NA,NA,"SKIP",0,0.833,1.31
"4214","caring","skirt",28,1,1,2.557,19,0.475,1,1,1,0.963,NA,NA,NA,NA,"SKIP",0,0.727,1.64
"4214","glue","force",37,1,1,1.374,11,0.275,1,0,0,0.886,NA,NA,NA,NA,"SKIP",0,0.966,1.31
"4214","pea","bathtub",30,1,1,1.903,9,0.225,1,0,0,0.871,NA,NA,NA,NA,"SKIP",0,1.287,1.703
"4214","shrink","mafia",33,1,1,1.782,6,0.15,1,0,0,6.791,NA,NA,NA,NA,"SKIP",0,0.828,1.208
"4214","prison","loaf",31,1,100,3.366,39,0.975,0,0,1,0.558,NA,NA,NA,NA,"loaf",1,1.402,2.822
"4214","nerve","bumper",21,1,1,1.99,16,0.4,0,1,0,0.718,NA,NA,NA,NA,"SKIP",0,0.792,1.359
"4214","port","cinema",5,1,1,2.334,15,0.375,0,1,0,0.727,NA,NA,NA,NA,"SKIP",0,0.776,1.647
"4214","risk","zero",20,1,1,1.742,27,0.675,1,1,1,0.68,NA,NA,NA,NA,"zero",1,1.184,2.551
"4214","knock","otter",25,1,1,1.526,10,0.25,1,0,0,0.735,NA,NA,NA,NA,"SKIP",0,1.338,1.727
"4214","need","faucet",11,1,1,3.207,7,0.175,1,0,0,0.822,NA,NA,NA,NA,"SKIP",0,0.78,1.198
"4214","bullet","walkway",23,1,1,1.382,30,0.75,0,0,1,0.943,NA,NA,NA,NA,"SKIP",0,1.157,1.548
"4214","find","clown",35,1,1,2.126,24,0.6,1,1,1,0.806,NA,NA,NA,NA,"SKIP",0,0.96,1.511
"5006","bullet","walkway",40,1,16,2.462,12,0.3,1,0,0,0.608,NA,NA,NA,NA,"steak",0,4.906,6.863
"5006","need","faucet",2,1,20,2.126,19,0.475,1,1,1,0.71,NA,NA,NA,NA,"water",0,3.514,5.301
"5006","bleach","ruin",19,1,25,3.318,27,0.675,0,1,0,0.575,NA,NA,NA,NA,"target",0,8.454,10.477
"5006","plant","worm",27,1,7,2.086,3,0.075,1,0,0,0.799,NA,NA,NA,NA,"case",0,5.434,7.152
"5006","collect","loyalty",28,1,25,2.438,26,0.65,0,1,0,0.638,NA,NA,NA,NA,"reward",0,2.139,4.351
"5006","process","joker",25,1,19,1.814,17,0.425,1,1,1,0.55,NA,NA,NA,NA,"reward",0,1.639,3.783
"5006","mill","feast",7,1,10,2.166,6,0.15,1,0,0,0.778,NA,NA,NA,NA,"creek",0,1.448,3.487
"5006","visit","glove",1,1,13,2.398,9,0.225,1,0,0,0.558,NA,NA,NA,NA,"plan",0,2.321,4.174
"5006","caring","skirt",20,1,100,3.198,37,0.925,0,1,0,2.894,NA,NA,NA,NA,"bride",0,7.433,9.784
"5006","pork","emperor",16,1,22,4.348,21,0.525,1,1,1,0.766,NA,NA,NA,NA,"otter",0,1.73,3.817
"5006","want","ascent",5,1,4,2.312,1,0.025,1,1,1,0.654,NA,NA,NA,NA,"river",0,9.146,14.886
"5006","pea","bathtub",9,1,17,2.615,13,0.325,0,1,0,0.732,NA,NA,NA,NA,"bathtub",1,1.55,4.062
"5006","risk","zero",22,1,100,3.788,38,0.95,0,0,1,0.6,NA,NA,NA,NA,"zero",1,1.698,3.367
"5006","calf","annoy",4,1,100,3.342,36,0.9,0,0,1,0.662,NA,NA,NA,NA,"annoy",1,1.473,3.671
"5006","anger","decay",21,1,36,4.007,30,0.75,0,0,1,0.646,NA,NA,NA,NA,"zone",0,3.858,5.607
"5006","rock","milk",36,1,100,2.225,35,0.875,0,0,1,0.783,NA,NA,NA,NA,"milk",1,1.626,3.767
"5006","nerve","bumper",13,1,7,2.95,2,0.05,1,0,0,0.649,NA,NA,NA,NA,"trade",0,3.224,5.231
"5006","banner","glide",11,1,11,4.557,7,0.175,1,0,0,0.621,NA,NA,NA,NA,"rise",0,3.67,6.03
"5006","knock","otter",3,1,22,2.358,22,0.55,1,1,1,1.055,NA,NA,NA,NA,"otter",1,1.608,3.063
"5006","shrink","mafia",23,1,25,2.614,25,0.625,0,1,0,0.582,NA,NA,NA,NA,"taste",0,2.336,5.206
"5006","bacon","feud",29,1,100,2.326,40,1,0,0,1,0.67,NA,NA,NA,NA,"trade",0,16.185,18.816
"5006","fan","feature",26,1,100,2.655,39,0.975,0,0,1,0.582,NA,NA,NA,NA,"feature",1,1.44,3.319
"5006","biology","temper",31,1,7,2.422,4,0.1,1,1,1,1.358,NA,NA,NA,NA,"trail",0,7.506,9.879
"5006","forest","knob",17,1,30,3.182,28,0.7,0,1,0,0.758,NA,NA,NA,NA,"frog",0,4.128,5.95
"5006","bias","sirloin",33,1,100,3.352,32,0.8,0,0,1,0.71,NA,NA,NA,NA,"note",0,9.194,11.046
"5006","link","crisis",37,1,23,2.198,23,0.575,0,1,0,0.661,NA,NA,NA,NA,"trouble",0,5.376,9.286
"5006","grip","beach",30,1,64,7.022,31,0.775,0,0,1,0.63,NA,NA,NA,NA,"beach",1,1.761,3.64
"5006","date","laugh",39,1,14,3.014,10,0.25,1,0,0,0.735,NA,NA,NA,NA,"movie",0,1.52,3.621
"5006","chicken","beet",12,1,100,3.559,33,0.825,0,0,1,0.598,NA,NA,NA,NA,"beet",1,5.548,7.264
"5006","port","cinema",34,1,36,8.82,29,0.725,1,1,1,9.212,NA,NA,NA,NA,"house",0,5.809,7.415
"5006","prison","loaf",6,1,18,2.822,15,0.375,1,1,1,1.031,NA,NA,NA,NA,"chamber",0,2.138,4.095
"5006","glue","force",18,1,100,3.95,34,0.85,0,0,1,1.054,NA,NA,NA,NA,"force",1,1.519,3.263
"5006","capital","figure",8,1,21,2.23,20,0.5,1,1,1,0.599,NA,NA,NA,NA,"think",0,3.374,5.358
"5006","find","clown",15,1,16,4.758,11,0.275,1,0,0,1.061,NA,NA,NA,NA,"finality",0,1.226,3.527
"5006","replace","roach",10,1,13,2.716,8,0.2,1,0,0,1.424,NA,NA,NA,NA,"reward",0,1.433,3.399
"5006","climax","saucer",14,1,19,2.517,16,0.4,0,1,0,0.703,NA,NA,NA,NA,"jacket",0,7.156,9.135
"5006","copy","bedroom",32,1,20,2.335,18,0.45,1,1,1,0.741,NA,NA,NA,NA,"ring",0,8.306,11.975
"5006","remind","foam",24,1,24,2.751,24,0.6,0,1,0,1.013,NA,NA,NA,NA,"carve",0,7.818,10.031
"5006","smother","surgery",35,1,10,2.31,5,0.125,1,0,0,0.678,NA,NA,NA,NA,"over",0,4.518,6.214
"5006","fee","chowder",38,1,18,2.232,14,0.35,0,1,0,0.711,NA,NA,NA,NA,"grade",0,8.412,10.68
"5195","bleach","ruin",6,1,77,1.951,30,0.75,1,0,0,0.678,NA,NA,NA,NA,"ruin",1,3.343,4.595
"5195","nerve","bumper",11,1,21,3.479,2,0.05,0,1,0,0.581,NA,NA,NA,NA,"bumper",1,9.257,11.398
"5195","date","laugh",13,1,41,10.679,9,0.225,0,1,0,0.839,NA,NA,NA,NA,"laugh",1,3.383,7.238
"5195","pork","emperor",8,1,75,2.055,29,0.725,1,0,0,0.6,NA,NA,NA,NA,"feud",0,2.759,4.775
"5195","risk","zero",40,1,80,1.671,33,0.825,1,0,0,0.703,NA,NA,NA,NA,"zero",1,3.009,4.165
"5195","mill","feast",22,1,69,1.942,19,0.475,0,0,1,1.255,NA,NA,NA,NA,"rock",0,11.782,13.334
"5195","copy","bedroom",20,1,68,1.774,18,0.45,1,0,0,0.687,NA,NA,NA,NA,"bed",0,4.78,14.066
"5195","remind","foam",33,1,64,5.703,14,0.35,0,0,1,0.655,NA,NA,NA,NA,"foam",1,8.095,12.255
"5195","calf","annoy",14,1,82,6.975,35,0.875,1,1,1,3.607,NA,NA,NA,NA,"annoy",1,3.43,8.152
"5195","biology","temper",1,1,88,2.591,39,0.975,1,1,1,1.847,NA,NA,NA,NA,"temper",1,1.873,5.842
"5195","process","joker",29,1,68,5.366,16,0.4,0,0,1,0.991,NA,NA,NA,NA,"joker",1,4.473,6.354
"5195","find","clown",26,1,42,8.751,10,0.25,0,1,0,0.862,NA,NA,NA,NA,"clown",1,1.369,7.847
"5195","glue","force",5,1,68,6.176,17,0.425,0,0,1,0.583,NA,NA,NA,NA,"force",1,11.026,13.553
"5195","grip","beach",21,1,73,5.311,23,0.575,0,0,1,0.783,NA,NA,NA,NA,"beach",1,11.299,14.196
"5195","need","faucet",2,1,63,9.743,13,0.325,1,0,0,5.381,NA,NA,NA,NA,"glide",0,20.97,23.837
"5195","want","ascent",7,1,73,4.911,24,0.6,1,0,0,5.334,NA,NA,NA,NA,"feature",0,13.018,16.506
"5195","chicken","beet",32,1,83,2.118,37,0.925,1,1,1,1.087,NA,NA,NA,NA,"sugar",0,15.38,28.343
"5195","bias","sirloin",16,1,65,7.543,15,0.375,0,0,1,0.711,NA,NA,NA,NA,"sirloin",1,18.604,20.623
"5195","shrink","mafia",12,1,75,2.423,28,0.7,1,0,0,0.991,NA,NA,NA,NA,"mafia",1,1.212,5.463
"5195","visit","glove",3,1,74,5.111,27,0.675,1,1,1,0.927,NA,NA,NA,NA,"glowing",0,6.259,12.255
"5195","prison","loaf",17,1,73,13.087,22,0.55,0,0,1,0.871,NA,NA,NA,NA,"loaf",1,1.587,2.978
"5195","plant","worm",38,1,42,9.383,11,0.275,1,0,0,0.743,NA,NA,NA,NA,"worm",1,1.63,3.043
"5195","banner","glide",34,1,74,4.383,26,0.65,1,1,1,0.703,NA,NA,NA,NA,"slide",0,2.318,4.245
"5195","fee","chowder",24,1,37,7.607,8,0.2,0,1,0,0.607,NA,NA,NA,NA,"chowder",1,3.015,5.087
"5195","bullet","walkway",9,1,69,4.912,20,0.5,0,0,1,0.59,NA,NA,NA,NA,"walkway",1,2.012,20.092
"5195","rock","milk",25,1,83,9.054,36,0.9,1,1,1,5.215,NA,NA,NA,NA,"mill",0,1.564,3.403
"5195","smother","surgery",27,1,22,9.448,3,0.075,0,1,0,0.623,NA,NA,NA,NA,"table",0,19.774,21.942
"5195","climax","saucer",23,1,23,2.549,4,0.1,0,1,0,0.655,NA,NA,NA,NA,"saucer",1,3.823,5.685
"5195","link","crisis",30,1,74,6.231,25,0.625,0,0,1,0.766,NA,NA,NA,NA,"crisis",1,5.5,8.322
"5195","fan","feature",37,1,27,8.367,5,0.125,0,1,0,1.008,NA,NA,NA,NA,"collect",0,20.258,22.074
"5195","bacon","feud",35,1,89,2.696,40,1,1,1,1,0.623,NA,NA,NA,NA,"feud",1,4.375,8.833
"5195","port","cinema",15,1,29,2.983,6,0.15,0,1,0,0.743,NA,NA,NA,NA,"cinema",1,3.477,6.188
"5195","caring","skirt",10,1,79,3.143,31,0.775,1,1,1,0.686,NA,NA,NA,NA,"skirt",1,44.71,46.054
"5195","anger","decay",36,1,81,8.719,34,0.85,1,1,1,2.928,NA,NA,NA,NA,"bottle",0,3.004,24.691
"5195","forest","knob",4,1,79,1.67,32,0.8,1,0,0,0.503,NA,NA,NA,NA,"know",0,5.498,6.727
"5195","replace","roach",19,1,32,3.135,7,0.175,0,1,0,0.743,NA,NA,NA,NA,"roach",1,14.87,16.549
"5195","pea","bathtub",28,1,13,2.223,1,0.025,0,1,0,0.695,NA,NA,NA,NA,"bathtub",1,12.399,14.6
"5195","knock","otter",31,1,87,2.536,38,0.95,1,1,1,1.568,NA,NA,NA,NA,"otter",1,4.272,5.449
"5195","capital","figure",39,1,70,2.71,21,0.525,0,0,1,0.632,NA,NA,NA,NA,"figure",1,9.686,11.007
"5195","collect","loyalty",18,1,48,9.192,12,0.3,1,0,0,0.759,NA,NA,NA,NA,"shaker",0,4.987,14.972
"5550","risk","zero",40,1,90,8.463,37,0.925,0,0,1,7.231,NA,NA,NA,NA,"skip",0,8.007,9.586
"5550","date","laugh",4,1,80,11.735,27,0.675,1,1,1,1.599,NA,NA,NA,NA,"laugh",1,1.156,2.695
"5550","mill","feast",2,1,70,6.449,23,0.575,1,1,1,5.246,NA,NA,NA,NA,"feast",1,0.987,3.343
"5550","nerve","bumper",9,1,80,4.67,29,0.725,1,1,1,1.255,NA,NA,NA,NA,"skip",0,16.372,23.519
"5550","capital","figure",13,1,10,5.767,14,0.35,0,1,0,0.655,NA,NA,NA,NA,"skip",0,4.205,6.064
"5550","banner","glide",34,1,14,9.91,18,0.45,0,1,0,0.647,NA,NA,NA,NA,"glide",1,2.252,3.688
"5550","pea","bathtub",21,1,20,8.143,21,0.525,1,1,1,0.831,NA,NA,NA,NA,"skip",0,1.228,2.632
"5550","collect","loyalty",7,1,9,4.135,6,0.15,1,0,0,0.695,NA,NA,NA,NA,"skip",0,1.084,2.567
"5550","fee","chowder",29,1,85,4.758,35,0.875,0,0,1,1.104,NA,NA,NA,NA,"skip",0,1.428,3.312
"5550","find","clown",5,1,10,6.518,9,0.225,1,0,0,1.047,NA,NA,NA,NA,"skip",0,1.227,2.727
"5550","chicken","beet",22,1,90,5.782,39,0.975,0,0,1,0.727,NA,NA,NA,NA,"beet",1,1.436,2.856
"5550","bleach","ruin",10,1,84,6.919,32,0.8,0,0,1,1.047,NA,NA,NA,NA,"ruin",1,0.988,2.647
"5550","want","ascent",15,1,19,8.407,20,0.5,0,1,0,0.623,NA,NA,NA,NA,"skip",0,1.476,3.848
"5550","biology","temper",28,1,75,7.575,25,0.625,1,1,1,1.191,NA,NA,NA,NA,"temper",1,1.66,3.384
"5550","replace","roach",1,1,10,6.287,16,0.4,1,1,1,1.271,NA,NA,NA,NA,"skip",0,1.259,2.711
"5550","grip","beach",3,1,9,8.767,4,0.1,1,0,0,0.567,NA,NA,NA,NA,"skip",0,2.724,4.135
"5550","process","joker",25,1,10,4.223,8,0.2,1,0,0,1.047,NA,NA,NA,NA,"skip",0,0.972,2.52
"5550","glue","force",8,1,80,6.551,28,0.7,1,1,1,1.375,NA,NA,NA,NA,"force",1,0.996,2.592
"5550","port","cinema",39,1,10,5.599,10,0.25,1,0,0,0.96,NA,NA,NA,NA,"skip",0,1.164,2.719
"5550","bacon","feud",32,1,79,6.431,26,0.65,1,1,1,0.671,NA,NA,NA,NA,"feud",1,2.044,3.84
"5550","shrink","mafia",17,1,10,4.287,13,0.325,0,1,0,0.639,NA,NA,NA,NA,"mafia",1,2.523,4.543
"5550","copy","bedroom",24,1,9,4.248,1,0.025,1,0,0,0.702,NA,NA,NA,NA,"bedroom",1,2.988,6.256
"5550","forest","knob",18,1,85,6.151,33,0.825,0,0,1,1.239,NA,NA,NA,NA,"knob",1,1.515,3.055
"5550","caring","skirt",35,1,11,6.925,17,0.425,0,1,0,0.695,NA,NA,NA,NA,"skip",0,8.132,10.119
"5550","remind","foam",6,1,9,3.559,5,0.125,1,0,0,0.687,NA,NA,NA,NA,"skip",0,1.204,2.952
"5550","smother","surgery",20,1,30,5.159,22,0.55,0,1,0,1.862,NA,NA,NA,NA,"skip",0,8.053,11.792
"5550","climax","saucer",30,1,9,5.927,3,0.075,1,0,0,0.647,NA,NA,NA,NA,"skip",0,1.379,3.694
"5550","bullet","walkway",23,1,85,4.535,34,0.85,0,0,1,0.935,NA,NA,NA,NA,"walkway",1,1.253,4.024
"5550","knock","otter",19,1,10,5.143,7,0.175,1,0,0,0.831,NA,NA,NA,NA,"skip",0,1.363,2.935
"5550","need","faucet",26,1,9,5.111,2,0.05,1,0,0,0.823,NA,NA,NA,NA,"skip",0,3.883,5.519
"5550","plant","worm",12,1,90,4.774,38,0.95,0,0,1,1.287,NA,NA,NA,NA,"skip",0,7.147,8.919
"5550","pork","emperor",33,1,90,2.727,40,1,0,0,1,0.719,NA,NA,NA,NA,"emperor",1,1.123,3.455
"5550","fan","feature",14,1,80,7.839,31,0.775,0,0,1,5.927,NA,NA,NA,NA,"feature",1,1.211,2.983
"5550","calf","annoy",16,1,70,5.783,24,0.6,1,1,1,0.711,NA,NA,NA,NA,"annoy",1,1.164,2.952
"5550","link","crisis",36,1,10,3.518,12,0.3,0,1,0,0.656,NA,NA,NA,NA,"crisis",1,1.156,5.584
"5550","visit","glove",38,1,10,5.599,11,0.275,0,1,0,0.831,NA,NA,NA,NA,"skip",0,1.684,3.392
"5550","rock","milk",31,1,80,4.527,30,0.75,1,1,1,1.103,NA,NA,NA,NA,"milk",1,1.091,2.679
"5550","prison","loaf",11,1,89,5.559,36,0.9,0,0,1,1.191,NA,NA,NA,NA,"loaf",1,1.924,3.335
"5550","anger","decay",27,1,15,6.67,19,0.475,0,1,0,1.391,NA,NA,NA,NA,"skip",0,1.563,3.663
"5550","bias","sirloin",37,1,10,3.711,15,0.375,0,1,0,0.727,NA,NA,NA,NA,"skip",0,3.667,5.191
"5753","find","clown",22,1,42,2.598,8,0.2,0,0,1,0.759,NA,NA,NA,NA,"fan",0,13.151,18.468
"5753","climax","saucer",40,1,56,5.337,21,0.525,1,1,1,2.902,NA,NA,NA,NA,"fee",0,34.484,36.233
"5753","biology","temper",16,1,48,2.308,13,0.325,0,1,0,0.986,NA,NA,NA,NA,"link",0,17.167,18.947
"5753","forest","knob",13,1,58,3.563,26,0.65,1,0,0,3.411,NA,NA,NA,NA,"knob",1,7.629,9.557
"5753","bullet","walkway",29,1,65,2.192,34,0.85,1,1,1,0.796,NA,NA,NA,NA,"walkway",1,15.094,17.92
"5753","capital","figure",26,1,40,20.843,7,0.175,0,0,1,12.932,NA,NA,NA,NA,"grip",0,17.716,19.635
"5753","nerve","bumper",25,1,60,1.8,28,0.7,1,0,0,0.645,NA,NA,NA,NA,"process",0,14.275,17.211
"5753","plant","worm",8,1,60,2.486,27,0.675,1,0,0,2.802,NA,NA,NA,NA,"worm",1,2.329,4.694
"5753","collect","loyalty",27,1,57,1.964,24,0.6,1,0,0,0.783,NA,NA,NA,NA,"loyalty",1,6.132,10.406
"5753","process","joker",12,1,63,2.789,33,0.825,1,1,1,0.886,NA,NA,NA,NA,"fee",0,12.132,13.526
"5753","replace","roach",37,1,58,8.966,25,0.625,1,1,1,0.632,NA,NA,NA,NA,"shrink",0,6.992,9.707
"5753","banner","glide",10,1,54,3.17,17,0.425,0,1,0,1.267,NA,NA,NA,NA,"calf",0,5.571,8.006
"5753","calf","annoy",38,1,62,2.889,32,0.8,1,1,1,0.735,NA,NA,NA,NA,"annoy",1,3.469,5.901
"5753","shrink","mafia",36,1,54,1.419,18,0.45,0,1,0,0.798,NA,NA,NA,NA,"riot",0,7.896,14.491
