"subn","word1","word2","points","value","trial","list","jol","jolrt","jolrank","jolrankp","practice","honor","choice","choicert","restudyresp","restudyacc","restudyrtfirst","restudyrt"
"1018","process","joker",10,1,1,1,73,1.863,7,0.194444444444444,0,0,1,0.996,"",NA,NA,NA
"1018","grip","beach",12,1,2,1,27,1.918,10,0.277777777777778,1,0,0,1.04,"beach",1,NA,4.086
"1018","visit","glove",2,0,3,1,24,2.012,24,0.666666666666667,1,0,0,1.225,"glove",1,NA,4.967
"1018","bias","sirloin",1,0,4,1,11,2.288,15,0.416666666666667,1,0,0,0.989,"?",0,NA,12.58
"1018","copy","bedroom",3,0,5,1,1,3.808,1,0.0277777777777778,0,0,1,-99,"",NA,NA,NA
"1018","anger","decay",1,0,6,1,21,1.717,18,0.5,1,0,0,1.751,"decay",1,NA,5.78
"1018","glue","force",11,1,7,1,74,1.639,5,0.138888888888889,0,0,1,2.859,"",NA,NA,NA
"1018","bullet","walkway",11,1,8,1,63,2.661,6,0.166666666666667,0,0,1,1.021,"",NA,NA,NA
"1018","port","cinema",2,0,9,1,23,2.397,22,0.611111111111111,1,0,0,0.848,"cinema",1,NA,3.957
"1018","replace","roach",11,1,10,1,74,2.15,36,1,1,0,0,0.981,"roach",1,NA,2.725
"1018","climax","saucer",11,1,11,1,15,1.994,34,0.944444444444444,1,0,0,1.505,"?",0,NA,10.667
"1018","plant","worm",1,0,12,1,86,1.733,23,0.638888888888889,0,0,1,2.189,"",NA,NA,NA
"1018","biology","temper",2,0,13,1,12,2.204,16,0.444444444444444,1,0,0,1.095,"?",0,NA,9.781
"1018","smother","surgery",3,0,14,1,20,2.03,20,0.555555555555556,1,0,0,1.323,"surgery",1,NA,2.977
"1018","bleach","ruin",10,1,15,1,67,2.887,2,0.0555555555555556,0,0,1,3.886,"",NA,NA,NA
"1018","shrink","mafia",10,1,16,1,74,1.573,30,0.833333333333333,0,0,1,1.105,"",NA,NA,NA
"1018","want","ascent",10,1,17,1,19,1.661,32,0.888888888888889,1,0,0,0.998,"?",0,NA,8.934
"1018","nerve","bumper",11,1,18,1,26,1.471,9,0.25,1,0,0,0.957,"?",0,NA,5.228
"1018","link","crisis",12,1,19,1,75,2.713,12,0.333333333333333,0,0,1,0.896,"",NA,NA,NA
"1018","knock","otter",12,1,20,1,76,1.539,31,0.861111111111111,0,0,1,1.508,"",NA,NA,NA
"1018","bacon","feud",3,0,21,1,24,1.489,33,0.916666666666667,1,0,0,0.89,"feud",1,NA,3.079
"1018","need","faucet",11,1,22,1,75,1.711,17,0.472222222222222,0,0,1,1.001,"",NA,NA,NA
"1018","remind","foam",2,0,23,1,1,2.987,4,0.111111111111111,1,0,0,7.37,"?",0,NA,4.867
"1018","rock","milk",10,1,24,1,71,2.086,25,0.694444444444444,0,0,1,0.85,"",NA,NA,NA
"1018","chicken","beet",1,0,25,1,65,1.664,13,0.361111111111111,0,0,1,1.281,"",NA,NA,NA
"1018","caring","skirt",1,0,26,1,14,1.666,14,0.388888888888889,1,0,0,1.005,"skirt",1,NA,3.141
"1018","pork","emperor",10,1,27,1,79,1.453,19,0.527777777777778,0,0,1,1.226,"",NA,NA,NA
"1018","fan","feature",1,0,28,1,83,1.667,8,0.222222222222222,0,0,1,1.191,"",NA,NA,NA
"1018","mill","feast",12,1,29,1,68,1.804,27,0.75,0,0,1,1.046,"",NA,NA,NA
"1018","prison","loaf",3,0,30,1,65,1.499,28,0.777777777777778,0,0,1,1.54,"",NA,NA,NA
"1018","capital","figure",3,0,31,1,25,1.961,29,0.805555555555556,1,0,0,1.661,"figure",1,NA,5.919
"1018","find","clown",2,0,32,1,1,2.03,3,0.0833333333333333,1,0,0,3.514,"?",0,NA,4.26
"1018","date","laugh",12,1,33,1,75,1.878,26,0.722222222222222,0,0,1,0.824,"",NA,NA,NA
"1018","fee","chowder",3,0,34,1,25,1.736,35,0.972222222222222,1,0,0,0.815,"?",0,NA,11.403
"1018","calf","annoy",2,0,35,1,71,1.512,11,0.305555555555556,0,0,1,0.987,"",NA,NA,NA
"1018","pea","bathtub",12,1,36,1,24,2.415,21,0.583333333333333,1,0,0,1.177,"bathtub",1,NA,3.966
"1155","biology","temper",2,0,1,1,32,8.009,3,0.0833333333333333,0,1,0,6.367,"",NA,NA,NA
"1155","shrink","mafia",10,1,2,1,74,2.073,15,0.416666666666667,1,1,1,1.622,"mafia",1,NA,7.275
"1155","want","ascent",10,1,3,1,66,2.994,2,0.0555555555555556,1,1,1,3.702,"ascent",1,NA,11.286
"1155","link","crisis",12,1,4,1,25,3.115,31,0.861111111111111,0,1,0,0.935,"",NA,NA,NA
"1155","smother","surgery",3,0,5,1,72,2.282,22,0.611111111111111,1,1,1,7.862,"surgery",1,NA,13.837
"1155","nerve","bumper",11,1,6,1,76,7.002,8,0.222222222222222,1,1,1,0.958,"bumper",1,NA,8.111
"1155","need","faucet",11,1,7,1,85,13.178,20,0.555555555555556,1,1,1,0.83,"otter",0,NA,13.951
"1155","fan","feature",1,0,8,1,77,6.571,10,0.277777777777778,1,1,1,0.951,"feather",0,NA,18.215
"1155","calf","annoy",2,0,9,1,70,2.459,28,0.777777777777778,0,1,0,0.622,"",NA,NA,NA
"1155","rock","milk",10,1,10,1,74,5.659,13,0.361111111111111,1,1,1,1.278,"milk",1,NA,9.563
"1155","process","joker",10,1,11,1,27,1.928,24,0.666666666666667,0,1,0,1.014,"",NA,NA,NA
"1155","capital","figure",3,0,12,1,37,16.723,34,0.944444444444444,0,1,0,0.807,"",NA,NA,NA
"1155","replace","roach",11,1,13,1,35,1.874,17,0.472222222222222,0,1,0,1.55,"",NA,NA,NA
"1155","plant","worm",1,0,14,1,67,1.384,36,1,0,1,0,4.045,"",NA,NA,NA
"1155","chicken","beet",1,0,15,1,96,3.778,12,0.333333333333333,1,1,1,0.983,"beet",1,NA,11.215
"1155","mill","feast",12,1,16,1,39,1.995,27,0.75,0,1,0,1.124,"",NA,NA,NA
"1155","pork","emperor",10,1,17,1,76,3.091,23,0.638888888888889,0,1,0,2.23,"",NA,NA,NA
"1155","bullet","walkway",11,1,18,1,83,2.282,7,0.194444444444444,1,1,1,0.702,"sidewalk",0,NA,12.548
"1155","visit","glove",2,0,19,1,60,2.033,11,0.305555555555556,1,1,1,1.086,"grip",0,NA,14.751
"1155","glue","force",11,1,20,1,88,2.574,26,0.722222222222222,0,1,0,1.326,"",NA,NA,NA
"1155","bias","sirloin",1,0,21,1,70,3.403,35,0.972222222222222,0,1,0,0.791,"",NA,NA,NA
"1155","bacon","feud",3,0,22,1,33,5.042,4,0.111111111111111,1,1,1,6.871,"feud",1,NA,10.73
"1155","prison","loaf",3,0,23,1,91,1.745,18,0.5,1,1,1,0.845,"loaf",1,NA,6.871
"1155","bleach","ruin",10,1,24,1,83,2.842,21,0.583333333333333,1,1,1,1.55,"ruin",1,NA,11.807
"1155","knock","otter",12,1,25,1,80,6.642,6,0.166666666666667,1,1,1,1.181,"otter",1,NA,8.583
"1155","copy","bedroom",3,0,26,1,71,2.042,25,0.694444444444444,0,1,0,0.655,"",NA,NA,NA
"1155","port","cinema",2,0,27,1,59,2.115,30,0.833333333333333,0,1,0,1.687,"",NA,NA,NA
"1155","find","clown",2,0,28,1,62,2.915,9,0.25,0,1,0,1.095,"",NA,NA,NA
"1155","fee","chowder",3,0,29,1,62,1.586,16,0.444444444444444,0,1,0,1.215,"",NA,NA,NA
"1155","date","laugh",12,1,30,1,84,1.85,32,0.888888888888889,0,1,0,0.991,"",NA,NA,NA
"1155","climax","saucer",11,1,31,1,36,2.355,33,0.916666666666667,0,1,0,0.703,"",NA,NA,NA
"1155","anger","decay",1,0,32,1,96,2.339,19,0.527777777777778,1,1,1,0.727,"decay",1,NA,11.412
"1155","pea","bathtub",12,1,33,1,68,1.973,5,0.138888888888889,1,1,1,10.019,"annoy",0,NA,10.638
"1155","grip","beach",12,1,34,1,67,5.689,1,0.0277777777777778,1,1,1,-99,"beach",1,NA,19.575
"1155","remind","foam",2,0,35,1,68,1.955,29,0.805555555555556,0,1,0,0.654,"",NA,NA,NA
"1155","caring","skirt",1,0,36,1,27,2.41,14,0.388888888888889,1,1,1,0.919,"jar",0,NA,21.597
"1242","climax","saucer",11,1,1,1,37,1.907,18,0.5,1,0,0,1,"saucer",1,NA,5.238
"1242","link","crisis",12,1,2,1,31,2.781,25,0.694444444444444,1,0,0,1.161,"dunno",0,NA,15.103
"1242","anger","decay",1,0,3,1,100,2.071,6,0.166666666666667,0,0,1,1.608,"",NA,NA,NA
"1242","nerve","bumper",11,1,4,1,69,6.677,12,0.333333333333333,0,0,1,1.047,"",NA,NA,NA
"1242","bias","sirloin",1,0,5,1,25,2.262,26,0.722222222222222,1,0,0,0.879,"dunno",0,NA,7.816
"1242","bacon","feud",3,0,6,1,86,3.905,23,0.638888888888889,0,0,1,0.89,"",NA,NA,NA
"1242","bleach","ruin",10,1,7,1,91,2.411,17,0.472222222222222,0,0,1,1.075,"",NA,NA,NA
"1242","fan","feature",1,0,8,1,74,2.245,13,0.361111111111111,0,0,1,1.064,"",NA,NA,NA
"1242","replace","roach",11,1,9,1,69,1.849,34,0.944444444444444,1,0,0,0.746,"dunno",0,NA,13.005
"1242","date","laugh",12,1,10,1,78,2.51,15,0.416666666666667,0,0,1,1.19,"",NA,NA,NA
"1242","caring","skirt",1,0,11,1,23,2.186,30,0.833333333333333,1,0,0,0.862,"dunno",0,NA,5.146
"1242","biology","temper",2,0,12,1,49,3.356,29,0.805555555555556,1,0,0,1.175,"anger",0,NA,5.266
"1242","copy","bedroom",3,0,13,1,63,2.186,32,0.888888888888889,1,0,0,0.75,"bedroom",1,NA,26.927
"1242","need","faucet",11,1,14,1,69,3.073,14,0.388888888888889,0,0,1,0.919,"",NA,NA,NA
"1242","visit","glove",2,0,15,1,34,2.018,31,0.861111111111111,1,0,0,1.125,"glove",1,NA,71.787
"1242","smother","surgery",3,0,16,1,84,2.53,35,0.972222222222222,1,0,0,1.111,"surgeon",0,NA,6.177
"1242","calf","annoy",2,0,17,1,35,2.57,7,0.194444444444444,0,0,1,1.167,"",NA,NA,NA
"1242","shrink","mafia",10,1,18,1,100,2.76,9,0.25,0,0,1,1.079,"",NA,NA,NA
"1242","prison","loaf",3,0,19,1,42,2.631,10,0.277777777777778,1,0,0,1.287,"foam",0,NA,7.651
"1242","fee","chowder",3,0,20,1,33,2.311,16,0.444444444444444,1,0,0,1.108,"chowder",1,NA,36.394
"1242","process","joker",10,1,21,1,39,4.1,22,0.611111111111111,1,0,0,1.034,"joker",1,NA,21.702
"1242","want","ascent",10,1,22,1,57,2.853,3,0.0833333333333333,1,0,0,1.929,"bias",0,NA,6.482
"1242","find","clown",2,0,23,1,100,3.102,8,0.222222222222222,0,0,1,1.03,"",NA,NA,NA
"1242","glue","force",11,1,24,1,82,2.7,19,0.527777777777778,0,0,1,0.779,"",NA,NA,NA
"1242","mill","feast",12,1,25,1,100,2.83,4,0.111111111111111,0,0,1,1.185,"",NA,NA,NA
"1242","plant","worm",1,0,26,1,100,2.465,2,0.0555555555555556,0,0,1,7.13,"",NA,NA,NA
"1242","port","cinema",2,0,27,1,10,4.127,1,0.0277777777777778,0,0,1,-99,"",NA,NA,NA
"1242","grip","beach",12,1,28,1,52,3.363,28,0.777777777777778,1,0,0,5.876,"beach",1,NA,15.256
"1242","bullet","walkway",11,1,29,1,32,2.072,21,0.583333333333333,1,0,0,0.89,"walkway",1,NA,39.342
"1242","knock","otter",12,1,30,1,81,2.511,24,0.666666666666667,0,0,1,0.91,"",NA,NA,NA
"1242","pea","bathtub",12,1,31,1,92,2.379,20,0.555555555555556,0,0,1,0.975,"",NA,NA,NA
"1242","capital","figure",3,0,32,1,67,2.727,11,0.305555555555556,0,0,1,3.392,"",NA,NA,NA
"1242","pork","emperor",10,1,33,1,100,2.406,36,1,1,0,0,1.109,"emporer",0,NA,5.61
"1242","rock","milk",10,1,34,1,85,2.09,33,0.916666666666667,1,0,0,3.469,"milk",1,NA,4.623
"1242","chicken","beet",1,0,35,1,100,2.254,27,0.75,1,0,0,1.018,"foam",0,NA,6.177
"1242","remind","foam",2,0,36,1,23,2.308,5,0.138888888888889,0,0,1,1.022,"",NA,NA,NA
"1282","biology","temper",2,0,1,1,84,2.401,7,0.194444444444444,1,0,0,1.255,"temper",1,NA,1395.934
"1282","port","cinema",2,0,2,1,73,1.972,9,0.25,1,0,0,1.396,"cinema",1,NA,36.204
"1282","process","joker",10,1,3,1,73,1.937,23,0.638888888888889,0,0,1,0.984,"",NA,NA,NA
"1282","bleach","ruin",10,1,4,1,79,1.608,13,0.361111111111111,1,0,0,3.181,"ruin",1,NA,27.231
"1282","prison","loaf",3,0,5,1,68,2.077,12,0.333333333333333,1,0,0,1.161,"loaf",1,NA,31.39
"1282","want","ascent",10,1,6,1,75,1.724,17,0.472222222222222,1,0,0,1.131,"accent",0,NA,31.391
"1282","link","crisis",12,1,7,1,92,2.457,20,0.555555555555556,0,0,1,1.355,"",NA,NA,NA
"1282","chicken","beet",1,0,8,1,82,2.097,18,0.5,1,0,0,1.125,"beef",0,NA,15.744
"1282","visit","glove",2,0,9,1,74,1.847,22,0.611111111111111,0,0,1,1.238,"",NA,NA,NA
"1282","mill","feast",12,1,10,1,77,1.819,21,0.583333333333333,0,0,1,1.219,"",NA,NA,NA
"1282","climax","saucer",11,1,11,1,76,1.954,6,0.166666666666667,1,0,0,1.249,"saucer",1,NA,36.99
"1282","bias","sirloin",1,0,12,1,75,22.275,5,0.138888888888889,1,0,0,1.252,"sirloin",1,NA,22.118
"1282","bullet","walkway",11,1,13,1,72,1.846,35,0.972222222222222,0,0,1,1.05,"",NA,NA,NA
"1282","fan","feature",1,0,14,1,93,2.106,11,0.305555555555556,1,0,0,1.086,"feature",1,NA,30.693
"1282","remind","foam",2,0,15,1,81,1.795,19,0.527777777777778,0,0,1,1.407,"",NA,NA,NA
"1282","copy","bedroom",3,0,16,1,76,1.589,32,0.888888888888889,0,0,1,1.331,"",NA,NA,NA
"1282","pork","emperor",10,1,17,1,73,2.65,3,0.0833333333333333,1,0,0,1.366,"emperor",1,NA,26.899
"1282","grip","beach",12,1,18,1,82,1.859,34,0.944444444444444,0,0,1,1.454,"",NA,NA,NA
"1282","find","clown",2,0,19,1,74,1.601,30,0.833333333333333,0,0,1,1.108,"",NA,NA,NA
"1282","caring","skirt",1,0,20,1,80,1.783,14,0.388888888888889,1,0,0,1.173,"skirt",1,NA,24.136
"1282","fee","chowder",3,0,21,1,75,2.019,15,0.416666666666667,1,0,0,1.149,"chowder",1,NA,15.464
"1282","anger","decay",1,0,22,1,82,1.738,8,0.222222222222222,1,0,0,0.989,"decay",1,NA,21.815
"1282","capital","figure",3,0,23,1,78,3.03,2,0.0555555555555556,1,0,0,14.29,"figure",1,NA,25.913
"1282","smother","surgery",3,0,24,1,90,1.946,28,0.777777777777778,0,0,1,1.015,"",NA,NA,NA
"1282","nerve","bumper",11,1,25,1,73,1.807,26,0.722222222222222,0,0,1,1.197,"",NA,NA,NA
"1282","date","laugh",12,1,26,1,73,1.743,16,0.444444444444444,1,0,0,0.749,"laugh",1,NA,27.241
"1282","calf","annoy",2,0,27,1,79,2.166,4,0.111111111111111,1,0,0,1.413,"annoy",1,NA,11.942
"1282","rock","milk",10,1,28,1,84,1.727,10,0.277777777777778,1,0,0,1.267,"milk",1,NA,16.738
"1282","plant","worm",1,0,29,1,85,2.013,36,1,0,0,1,1.612,"",NA,NA,NA
"1282","need","faucet",11,1,30,1,77,1.614,24,0.666666666666667,0,0,1,0.832,"",NA,NA,NA
"1282","knock","otter",12,1,31,1,72,1.679,29,0.805555555555556,0,0,1,0.891,"",NA,NA,NA
"1282","pea","bathtub",12,1,32,1,78,2.034,25,0.694444444444444,0,0,1,0.937,"",NA,NA,NA
"1282","replace","roach",11,1,33,1,82,2.146,1,0.0277777777777778,1,0,0,-99,"roach",1,NA,16.422
"1282","bacon","feud",3,0,34,1,81,1.789,33,0.916666666666667,0,0,1,2.095,"",NA,NA,NA
"1282","shrink","mafia",10,1,35,1,73,1.86,31,0.861111111111111,0,0,1,1.062,"",NA,NA,NA
"1282","glue","force",11,1,36,1,75,2.012,27,0.75,0,0,1,1.125,"",NA,NA,NA
"1302","calf","annoy",2,0,1,1,85,11.774,15,0.416666666666667,0,0,1,1.452,"",NA,NA,NA
"1302","anger","decay",1,0,2,1,60,9.402,35,0.972222222222222,1,0,0,1.231,"decay",1,NA,75.802
"1302","rock","milk",10,1,3,1,100,6.824,34,0.944444444444444,1,0,0,0.999,"milk",1,NA,72.76
"1302","climax","saucer",11,1,4,1,75,12.656,7,0.194444444444444,0,0,1,1.509,"",NA,NA,NA
"1302","pork","emperor",10,1,5,1,90,5.922,29,0.805555555555556,1,0,0,0.982,"emperor",1,NA,30.323
"1302","remind","foam",2,0,6,1,80,11.507,2,0.0555555555555556,0,0,1,10.957,"",NA,NA,NA
"1302","fee","chowder",3,0,7,1,70,10.012,9,0.25,0,0,1,1.095,"",NA,NA,NA
"1302","fan","feature",1,0,8,1,95,12.233,11,0.305555555555556,0,0,1,1.327,"",NA,NA,NA
"1302","knock","otter",12,1,9,1,55,8.713,31,0.861111111111111,1,0,0,0.864,"otter",1,NA,14.512
"1302","bacon","feud",3,0,10,1,31,6.747,24,0.666666666666667,1,0,0,1.215,"feud",1,NA,22.935
"1302","biology","temper",2,0,11,1,75,9.219,18,0.5,0,0,1,1.375,"",NA,NA,NA
"1302","pea","bathtub",12,1,12,1,79,29.2,1,0.0277777777777778,0,0,1,-99,"",NA,NA,NA
"1302","port","cinema",2,0,13,1,71,6.584,6,0.166666666666667,0,0,1,1.44,"",NA,NA,NA
"1302","smother","surgery",3,0,14,1,80,10.295,4,0.111111111111111,0,0,1,1.799,"",NA,NA,NA
"1302","chicken","beet",1,0,15,1,75,11.18,20,0.555555555555556,1,0,0,23.455,"beet",1,NA,13.613
"1302","bias","sirloin",1,0,16,1,55,6.718,25,0.694444444444444,1,0,0,0.702,"sirloin",1,NA,15.318
"1302","link","crisis",12,1,17,1,65,7.891,27,0.75,1,0,0,0.791,"crisis",1,NA,12.103
"1302","caring","skirt",1,0,18,1,70,10.022,33,0.916666666666667,1,0,0,0.999,"skirt",1,NA,16.975
"1302","bullet","walkway",11,1,19,1,75,7.131,22,0.611111111111111,1,0,0,2.543,"walkway",1,NA,37.726
"1302","capital","figure",3,0,20,1,85,10.975,13,0.361111111111111,0,0,1,9.775,"",NA,NA,NA
"1302","copy","bedroom",3,0,21,1,90,7.875,32,0.888888888888889,1,0,0,0.847,"bedroom",1,NA,31.893
"1302","shrink","mafia",10,1,22,1,93,6.761,8,0.222222222222222,0,0,1,1.119,"",NA,NA,NA
"1302","process","joker",10,1,23,1,90,7.748,14,0.388888888888889,0,0,1,4.415,"",NA,NA,NA
"1302","visit","glove",2,0,24,1,71,6.785,16,0.444444444444444,0,0,1,1.166,"",NA,NA,NA
"1302","nerve","bumper",11,1,25,1,86,8.571,17,0.472222222222222,0,0,1,1.11,"",NA,NA,NA
"1302","plant","worm",1,0,26,1,40,7.731,5,0.138888888888889,0,0,1,1.917,"",NA,NA,NA
"1302","date","laugh",12,1,27,1,75,7.779,23,0.638888888888889,1,0,0,1.311,"laugh",1,NA,18.242
"1302","grip","beach",12,1,28,1,80,6.546,21,0.583333333333333,1,0,0,1.894,"beach",1,NA,17.687
"1302","glue","force",11,1,29,1,84,7.451,30,0.833333333333333,1,0,0,0.952,"force",1,NA,14.031
"1302","replace","roach",11,1,30,1,70,7.666,10,0.277777777777778,0,0,1,1.228,"",NA,NA,NA
"1302","need","faucet",11,1,31,1,75,10.599,28,0.777777777777778,1,0,0,1.006,"bleach",0,NA,66.005
"1302","prison","loaf",3,0,32,1,76,5.379,26,0.722222222222222,1,0,0,0.864," loaf",0,NA,12.048
"1302","find","clown",2,0,33,1,85,9.894,19,0.527777777777778,1,0,0,1.016,"clown",1,NA,15.983
"1302","want","ascent",10,1,34,1,80,8.393,36,1,1,0,0,2.071,"ascent",1,NA,16.56
"1302","bleach","ruin",10,1,35,1,79,12.534,12,0.333333333333333,0,0,1,1.118,"",NA,NA,NA
"1302","mill","feast",12,1,36,1,86,8.346,3,0.0833333333333333,0,0,1,10.759,"",NA,NA,NA
"1584","bullet","walkway",11,1,1,1,38,2.34,8,0.222222222222222,0,0,1,0.949,"",NA,NA,NA
"1584","anger","decay",1,0,2,1,33,2.06,17,0.472222222222222,0,0,1,1.188,"",NA,NA,NA
"1584","want","ascent",10,1,3,1,34,2.78,31,0.861111111111111,1,0,0,1.319,"skip",0,NA,10.729
"1584","knock","otter",12,1,4,1,32,2.206,30,0.833333333333333,1,0,0,1.8,"wood",0,NA,4.079
"1584","calf","annoy",2,0,5,1,35,2.247,16,0.444444444444444,0,0,1,1.861,"",NA,NA,NA
"1584","replace","roach",11,1,6,1,34,2.299,9,0.25,0,0,1,2.929,"",NA,NA,NA
"1584","fee","chowder",3,0,7,1,30,2.066,12,0.333333333333333,0,0,1,1.77,"",NA,NA,NA
"1584","date","laugh",12,1,8,1,37,5.263,36,1,1,0,0,3.2,"laugh",1,NA,4.053
"1584","glue","force",11,1,9,1,29,2.334,28,0.777777777777778,1,0,0,3.275,"hold",0,NA,3.902
"1584","find","clown",2,0,10,1,32,4.224,1,0.0277777777777778,0,0,1,-99,"",NA,NA,NA
"1584","link","crisis",12,1,11,1,31,2.126,23,0.638888888888889,1,0,0,0.99,"destruction",0,NA,5.433
"1584","plant","worm",1,0,12,1,34,2.383,15,0.416666666666667,0,0,1,1.397,"",NA,NA,NA
"1584","remind","foam",2,0,13,1,31,2.287,18,0.5,0,0,1,1.125,"",NA,NA,NA
"1584","smother","surgery",3,0,14,1,30,1.857,21,0.583333333333333,1,0,0,1.002,"surgery",1,NA,6.192
"1584","bias","sirloin",1,0,15,1,34,2.459,22,0.611111111111111,1,0,0,1.142,"skip",0,NA,2.778
"1584","visit","glove",2,0,16,1,29,1.823,20,0.555555555555556,1,0,0,1.342,"skip",0,NA,4.399
"1584","pea","bathtub",12,1,17,1,39,2.409,13,0.361111111111111,0,0,1,1.351,"",NA,NA,NA
"1584","chicken","beet",1,0,18,1,31,2.68,34,0.944444444444444,1,0,0,3.916,"afoot",0,NA,4.439
"1584","shrink","mafia",10,1,19,1,33,3.692,27,0.75,1,0,0,2.346,"skip",0,NA,4.571
"1584","copy","bedroom",3,0,20,1,36,1.962,19,0.527777777777778,1,0,0,1.018,"skip",0,NA,5.024
"1584","climax","saucer",11,1,21,1,32,1.994,6,0.166666666666667,0,0,1,1.039,"",NA,NA,NA
"1584","biology","temper",2,0,22,1,33,1.976,11,0.305555555555556,0,0,1,1.791,"",NA,NA,NA
"1584","pork","emperor",10,1,23,1,32,2.276,33,0.916666666666667,1,0,0,2.624,"emperor",1,NA,4.31
"1584","mill","feast",12,1,24,1,36,2.47,25,0.694444444444444,1,0,0,1.026,"floor",0,NA,7.293
"1584","process","joker",10,1,25,1,32,3.267,32,0.888888888888889,1,0,0,1.451,"skip",0,NA,5.01
"1584","fan","feature",1,0,26,1,34,2.038,7,0.194444444444444,0,0,1,1.373,"",NA,NA,NA
"1584","grip","beach",12,1,27,1,32,2.864,5,0.138888888888889,0,0,1,1.058,"",NA,NA,NA
"1584","caring","skirt",1,0,28,1,31,1.991,35,0.972222222222222,1,0,0,2.29,"skip",0,NA,11.132
"1584","need","faucet",11,1,29,1,39,2.218,14,0.388888888888889,0,0,1,1.163,"",NA,NA,NA
"1584","port","cinema",2,0,30,1,36,2.686,24,0.666666666666667,1,0,0,2.429,"skip",0,NA,6.64
"1584","bacon","feud",3,0,31,1,36,2.541,26,0.722222222222222,1,0,0,2.896,"need",0,NA,7.253
"1584","capital","figure",3,0,32,1,31,3.347,2,0.0555555555555556,0,0,1,5.81,"",NA,NA,NA
"1584","bleach","ruin",10,1,33,1,35,2.337,10,0.277777777777778,0,0,1,1.784,"",NA,NA,NA
"1584","prison","loaf",3,0,34,1,33,2.73,29,0.805555555555556,1,0,0,3.134,"skip",0,NA,6.474
"1584","rock","milk",10,1,35,1,38,2.621,3,0.0833333333333333,0,0,1,4.598,"",NA,NA,NA
"1584","nerve","bumper",11,1,36,1,30,2.401,4,0.111111111111111,0,0,1,1.313,"",NA,NA,NA
"1636","bias","sirloin",1,0,1,1,80,3.42,9,0.25,1,0,0,0.939,"sirloin",1,NA,14.322
"1636","nerve","bumper",11,1,2,1,100,2.788,3,0.0833333333333333,0,0,1,1.266,"",NA,NA,NA
"1636","mill","feast",12,1,3,1,100,2.638,30,0.833333333333333,0,0,1,6.148,"",NA,NA,NA
"1636","smother","surgery",3,0,4,1,80,4.245,22,0.611111111111111,1,0,0,1.227,"surgery",1,NA,11.567
"1636","remind","foam",2,0,5,1,75,3.911,36,1,1,0,0,1.314,"foam",1,NA,11.724
"1636","chicken","beet",1,0,6,1,80,3.823,5,0.138888888888889,1,0,0,4.076,"beet",1,NA,5.332
"1636","pea","bathtub",12,1,7,1,100,2.146,35,0.972222222222222,0,0,1,1.208,"",NA,NA,NA
"1636","fee","chowder",3,0,8,1,85,6.131,21,0.583333333333333,1,0,0,1.224,"chowder",1,NA,10.518
"1636","knock","otter",12,1,9,1,100,2.302,15,0.416666666666667,0,0,1,0.955,"",NA,NA,NA
"1636","capital","figure",3,0,10,1,75,7.281,8,0.222222222222222,1,0,0,1.305,"figure",1,NA,9.134
"1636","biology","temper",2,0,11,1,75,8.411,1,0.0277777777777778,1,0,0,-99,"temper",1,NA,17.001
"1636","process","joker",10,1,12,1,100,2.73,32,0.888888888888889,0,0,1,0.972,"",NA,NA,NA
"1636","grip","beach",12,1,13,1,100,2.412,34,0.944444444444444,0,0,1,0.928,"",NA,NA,NA
"1636","rock","milk",10,1,14,1,100,2.403,20,0.555555555555556,0,0,1,0.922,"",NA,NA,NA
"1636","prison","loaf",3,0,15,1,90,3.336,17,0.472222222222222,1,0,0,0.986,"loaf",1,NA,5.281
"1636","glue","force",11,1,16,1,100,3.565,4,0.111111111111111,0,0,1,1.347,"",NA,NA,NA
"1636","port","cinema",2,0,17,1,85,4.039,11,0.305555555555556,1,0,0,0.938,"cinema",1,NA,18.997
"1636","date","laugh",12,1,18,1,100,2.49,7,0.194444444444444,0,0,1,1.36,"",NA,NA,NA
"1636","bleach","ruin",10,1,19,1,100,2.247,33,0.916666666666667,0,0,1,0.898,"",NA,NA,NA
"1636","fan","feature",1,0,20,1,75,3.293,19,0.527777777777778,1,0,0,1.185,"feature",1,NA,13.221
"1636","plant","worm",1,0,21,1,85,4.346,13,0.361111111111111,1,0,0,1.034,"worm",1,NA,10.397
"1636","caring","skirt",1,0,22,1,75,5.035,2,0.0555555555555556,1,0,0,17.519,"skirt",1,NA,21.735
"1636","replace","roach",11,1,23,1,100,2.755,25,0.694444444444444,0,0,1,0.837,"",NA,NA,NA
"1636","copy","bedroom",3,0,24,1,75,3.463,24,0.666666666666667,1,0,0,0.867,"bedroom",1,NA,12.989
"1636","want","ascent",10,1,25,1,100,2.516,18,0.5,0,0,1,1.044,"",NA,NA,NA
"1636","need","faucet",11,1,26,1,100,2.453,12,0.333333333333333,0,0,1,0.962,"",NA,NA,NA
"1636","bacon","feud",3,0,27,1,70,3.376,6,0.166666666666667,1,0,0,1.903,"feud",1,NA,12.166
"1636","bullet","walkway",11,1,28,1,100,2.138,29,0.805555555555556,0,0,1,1.026,"",NA,NA,NA
"1636","link","crisis",12,1,29,1,100,2.153,27,0.75,0,0,1,0.979,"",NA,NA,NA
"1636","climax","saucer",11,1,30,1,100,3.029,16,0.444444444444444,0,0,1,0.995,"",NA,NA,NA
"1636","anger","decay",1,0,31,1,80,3.213,31,0.861111111111111,1,0,0,1.023,"decay",1,NA,15.994
"1636","pork","emperor",10,1,32,1,100,2.269,10,0.277777777777778,0,0,1,1.208,"",NA,NA,NA
"1636","find","clown",2,0,33,1,80,3,14,0.388888888888889,1,0,0,0.925,"clown",1,NA,14.135
"1636","shrink","mafia",10,1,34,1,100,2.596,26,0.722222222222222,0,0,1,1.094,"",NA,NA,NA
"1636","calf","annoy",2,0,35,1,80,2.867,28,0.777777777777778,1,0,0,0.764,"annoy",1,NA,18.874
"1636","visit","glove",2,0,36,1,70,3.166,23,0.638888888888889,1,0,0,1.016,"glove",1,NA,11.565
"1700","bleach","ruin",10,1,1,1,60,6.302,1,0.0277777777777778,1,0,0,-99,"ruin",1,NA,3.638
"1700","smother","surgery",3,0,2,1,59,1.595,3,0.0833333333333333,1,0,0,3.114,"surgery",1,NA,4.628
"1700","plant","worm",1,0,3,1,61,1.659,17,0.472222222222222,1,0,0,0.983,"worm",1,NA,3.769
"1700","mill","feast",12,1,4,1,28,1.518,6,0.166666666666667,0,0,1,1.257,"",NA,NA,NA
"1700","fan","feature",1,0,5,1,69,2.701,4,0.111111111111111,1,0,0,2.407,"feature",1,NA,4.643
"1700","pork","emperor",10,1,6,1,57,1.383,21,0.583333333333333,0,0,1,2.939,"",NA,NA,NA
"1700","remind","foam",2,0,7,1,19,2.107,36,1,0,0,1,1.042,"",NA,NA,NA
"1700","glue","force",11,1,8,1,61,1.71,10,0.277777777777778,0,0,1,1.233,"",NA,NA,NA
"1700","calf","annoy",2,0,9,1,22,1.693,32,0.888888888888889,1,0,0,0.9,"annoy",1,NA,3.451
"1700","grip","beach",12,1,10,1,33,3.124,31,0.861111111111111,0,0,1,0.801,"",NA,NA,NA
"1700","pea","bathtub",12,1,11,1,35,1.616,7,0.194444444444444,0,0,1,1.001,"",NA,NA,NA
"1700","process","joker",10,1,12,1,30,1.605,13,0.361111111111111,0,0,1,0.96,"",NA,NA,NA
"1700","date","laugh",12,1,13,1,42,1.266,18,0.5,0,0,1,0.763,"",NA,NA,NA
"1700","rock","milk",10,1,14,1,43,1.557,28,0.777777777777778,0,0,1,1.029,"",NA,NA,NA
"1700","find","clown",2,0,15,1,23,1.395,9,0.25,1,0,0,1.331,"clown",1,NA,4.845
"1700","prison","loaf",3,0,16,1,36,4.187,2,0.0555555555555556,1,0,0,18.676,"loaf",1,NA,4.028
"1700","capital","figure",3,0,17,1,40,2.147,8,0.222222222222222,1,0,0,1.007,"figure",1,NA,4.048
"1700","climax","saucer",11,1,18,1,42,2.773,30,0.833333333333333,0,0,1,0.759,"",NA,NA,NA
"1700","bias","sirloin",1,0,19,1,20,1.708,26,0.722222222222222,1,0,0,0.947,"sirloin",1,NA,5.274
"1700","nerve","bumper",11,1,20,1,41,2.044,14,0.388888888888889,0,0,1,0.979,"",NA,NA,NA
"1700","shrink","mafia",10,1,21,1,59,1.489,27,0.75,0,0,1,0.72,"",NA,NA,NA
"1700","fee","chowder",3,0,22,1,18,1.651,12,0.333333333333333,1,0,0,0.89,"chowder",1,NA,4.875
"1700","want","ascent",10,1,23,1,27,1.973,20,0.555555555555556,0,0,1,0.822,"",NA,NA,NA
"1700","bacon","feud",3,0,24,1,65,1.353,15,0.416666666666667,1,0,0,0.899,"feud",1,NA,4.946
"1700","caring","skirt",1,0,25,1,66,2.253,22,0.611111111111111,1,0,0,1.366,"skirt",1,NA,3.746
"1700","chicken","beet",1,0,26,1,59,1.625,33,0.916666666666667,1,0,0,1.369,"beet",1,NA,4.007
"1700","need","faucet",11,1,27,1,35,2.638,5,0.138888888888889,0,0,1,1.367,"",NA,NA,NA
"1700","replace","roach",11,1,28,1,32,1.446,34,0.944444444444444,0,0,1,0.884,"",NA,NA,NA
"1700","link","crisis",12,1,29,1,22,2.507,19,0.527777777777778,0,0,1,0.877,"",NA,NA,NA
"1700","knock","otter",12,1,30,1,26,2.675,24,0.666666666666667,0,0,1,1.862,"",NA,NA,NA
"1700","copy","bedroom",3,0,31,1,35,1.811,23,0.638888888888889,1,0,0,0.937,"bedroom",1,NA,5.397
"1700","visit","glove",2,0,32,1,72,1.398,35,0.972222222222222,1,0,0,1.543,"glove",1,NA,3.845
"1700","biology","temper",2,0,33,1,43,1.373,16,0.444444444444444,1,0,0,1.037,"temper",1,NA,5.215
"1700","port","cinema",2,0,34,1,39,1.659,11,0.305555555555556,1,0,0,1.023,"cinema",1,NA,9.425
"1700","bullet","walkway",11,1,35,1,36,1.415,25,0.694444444444444,0,0,1,5.231,"",NA,NA,NA
"1700","anger","decay",1,0,36,1,34,1.536,29,0.805555555555556,1,0,0,1.115,"no",0,NA,18.765
"1804","copy","bedroom",3,0,1,1,28,1.68,24,0.666666666666667,1,0,0,0.917,"bedroom",1,NA,7.613
"1804","want","ascent",10,1,2,1,29,1.873,27,0.75,0,0,1,3.097,"",NA,NA,NA
"1804","fee","chowder",3,0,3,1,1,1.875,32,0.888888888888889,0,0,1,1.269,"",NA,NA,NA
"1804","pork","emperor",10,1,4,1,100,1.936,17,0.472222222222222,0,0,1,0.863,"",NA,NA,NA
"1804","replace","roach",11,1,5,1,11,1.827,15,0.416666666666667,1,0,0,1.108,"hjjjgh",0,NA,18.814
"1804","process","joker",10,1,6,1,33,1.666,31,0.861111111111111,0,0,1,0.984,"",NA,NA,NA
"1804","caring","skirt",1,0,7,1,87,1.904,16,0.444444444444444,0,0,1,1.542,"",NA,NA,NA
"1804","fan","feature",1,0,8,1,55,1.834,35,0.972222222222222,0,0,1,5.63,"",NA,NA,NA
"1804","mill","feast",12,1,9,1,24,2.045,8,0.222222222222222,1,0,0,1.663,"nnn",0,NA,18.465
"1804","need","faucet",11,1,10,1,24,2.037,9,0.25,1,0,0,2.861,"nnnn",0,NA,21.887
"1804","anger","decay",1,0,11,1,18,1.891,29,0.805555555555556,0,0,1,0.939,"",NA,NA,NA
"1804","grip","beach",12,1,12,1,24,3.296,10,0.277777777777778,1,0,0,2.436,"nnnn",0,NA,4.018
"1804","find","clown",2,0,13,1,87,4.027,11,0.305555555555556,1,0,0,1.695,"clown",1,NA,20.741
"1804","remind","foam",2,0,14,1,16,1.997,23,0.638888888888889,1,0,0,1.079,"nnn",0,NA,15.053
"1804","glue","force",11,1,15,1,36,1.697,5,0.138888888888889,1,0,0,1.393,"nnnn",0,NA,11.925
"1804","smother","surgery",3,0,16,1,52,3,36,1,0,0,1,3.309,"",NA,NA,NA
"1804","bullet","walkway",11,1,17,1,22,8.856,22,0.611111111111111,1,0,0,0.945,"nnnn",0,NA,12.927
"1804","nerve","bumper",11,1,18,1,15,1.942,6,0.166666666666667,1,0,0,1.718,"nnnn",0,NA,8.285
"1804","prison","loaf",3,0,19,1,16,1.857,28,0.777777777777778,0,0,1,1.203,"",NA,NA,NA
"1804","knock","otter",12,1,20,1,37,2.122,33,0.916666666666667,0,0,1,0.984,"",NA,NA,NA
"1804","plant","worm",1,0,21,1,99,2.265,12,0.333333333333333,0,0,1,1.643,"",NA,NA,NA
"1804","biology","temper",2,0,22,1,2,1.86,14,0.388888888888889,1,0,0,1.224,"temper",1,NA,13.807
"1804","bacon","feud",3,0,23,1,99,2.509,18,0.5,0,0,1,0.846,"",NA,NA,NA
"1804","visit","glove",2,0,24,1,27,6.976,3,0.0833333333333333,1,0,0,7.226,"nnnn",0,NA,7.984
"1804","chicken","beet",1,0,25,1,55,3.856,30,0.833333333333333,0,0,1,1.254,"",NA,NA,NA
"1804","bleach","ruin",10,1,26,1,28,2.969,34,0.944444444444444,0,0,1,1.109,"",NA,NA,NA
"1804","pea","bathtub",12,1,27,1,8,2.111,20,0.555555555555556,1,0,0,1.173,"bathtub",1,NA,21.258
"1804","bias","sirloin",1,0,28,1,16,1.989,19,0.527777777777778,1,0,0,1.2,"nnnn",0,NA,11.926
"1804","port","cinema",2,0,29,1,27,2.329,4,0.111111111111111,1,0,0,4.742,"nnn",0,NA,9.14
"1804","climax","saucer",11,1,30,1,4,1.821,13,0.361111111111111,1,0,0,0.909,"nnnnn",0,NA,4.501
"1804","rock","milk",10,1,31,1,100,2.213,21,0.583333333333333,0,0,1,3.91,"",NA,NA,NA
"1804","capital","figure",3,0,32,1,22,2.522,26,0.722222222222222,0,0,1,2.892,"",NA,NA,NA
"1804","date","laugh",12,1,33,1,40,2.972,7,0.194444444444444,1,0,0,1.295,"nnnn",0,NA,10.783
"1804","calf","annoy",2,0,34,1,35,6.68,2,0.0555555555555556,0,0,1,3.964,"",NA,NA,NA
"1804","link","crisis",12,1,35,1,29,1.456,25,0.694444444444444,0,0,1,0.794,"",NA,NA,NA
"1804","shrink","mafia",10,1,36,1,75,4.058,1,0.0277777777777778,1,0,0,-99,"mafia",1,NA,10.26
"1909","grip","beach",12,1,1,1,8,3.664,2,0.0555555555555556,1,1,1,3.031,"ocean",0,NA,5.707
"1909","rock","milk",10,1,2,1,3,1.536,12,0.333333333333333,1,1,1,0.649,"milk",1,NA,2.647
"1909","want","ascent",10,1,3,1,5,1.727,9,0.25,1,1,1,0.744,"ascent",1,NA,3.912
"1909","glue","force",11,1,4,1,39,1.352,26,0.722222222222222,0,1,0,0.716,"",NA,NA,NA
"1909","date","laugh",12,1,5,1,24,4.287,1,0.0277777777777778,1,1,1,-99,"laugh",1,NA,2.967
"1909","smother","surgery",3,0,6,1,36,1.831,6,0.166666666666667,1,1,1,0.794,"surgery",1,NA,4.599
"1909","anger","decay",1,0,7,1,13,1.67,17,0.472222222222222,1,1,1,0.697,"milk",0,NA,16.608
"1909","bleach","ruin",10,1,8,1,39,1.533,22,0.611111111111111,0,1,0,1.157,"",NA,NA,NA
"1909","capital","figure",3,0,9,1,53,2.795,7,0.194444444444444,1,1,1,0.763,"venture",0,NA,7.005
"1909","link","crisis",12,1,10,1,30,1.347,29,0.805555555555556,0,1,0,0.658,"",NA,NA,NA
"1909","fee","chowder",3,0,11,1,36,1.172,23,0.638888888888889,0,1,0,0.777,"",NA,NA,NA
"1909","knock","otter",12,1,12,1,26,1.362,36,1,0,1,0,0.653,"",NA,NA,NA
"1909","fan","feature",1,0,13,1,31,1.344,5,0.138888888888889,1,1,1,0.825,"otter",0,NA,6.179
"1909","need","faucet",11,1,14,1,24,3.967,31,0.861111111111111,0,1,0,0.716,"",NA,NA,NA
"1909","bacon","feud",3,0,15,1,16,1.355,32,0.888888888888889,0,1,0,1.232,"",NA,NA,NA
"1909","bullet","walkway",11,1,16,1,41,1.599,4,0.111111111111111,1,1,1,0.776,"walkway",1,NA,3.595
"1909","copy","bedroom",3,0,17,1,6,1.735,3,0.0833333333333333,1,1,1,2.243,"otter",0,NA,6.487
"1909","port","cinema",2,0,18,1,40,1.301,13,0.361111111111111,1,1,1,0.745,"theater",0,NA,6.983
"1909","biology","temper",2,0,19,1,18,1.295,14,0.388888888888889,1,1,1,0.82,"temper",1,NA,2.743
"1909","process","joker",10,1,20,1,38,1.435,25,0.694444444444444,0,1,0,0.873,"",NA,NA,NA
"1909","find","clown",2,0,21,1,45,1.286,35,0.972222222222222,0,1,0,0.633,"",NA,NA,NA
"1909","mill","feast",12,1,22,1,51,1.404,30,0.833333333333333,0,1,0,0.765,"",NA,NA,NA
"1909","climax","saucer",11,1,23,1,15,1.275,15,0.416666666666667,1,1,1,0.807,"saucer",1,NA,3.706
"1909","pork","emperor",10,1,24,1,11,2.859,34,0.944444444444444,0,1,0,0.762,"",NA,NA,NA
"1909","bias","sirloin",1,0,25,1,20,1.525,19,0.527777777777778,0,1,0,0.721,"",NA,NA,NA
"1909","prison","loaf",3,0,26,1,33,1.499,28,0.777777777777778,0,1,0,1.29,"",NA,NA,NA
"1909","plant","worm",1,0,27,1,27,1.897,20,0.555555555555556,0,1,0,8.978,"",NA,NA,NA
"1909","replace","roach",11,1,28,1,26,1.442,33,0.916666666666667,0,1,0,0.603,"",NA,NA,NA
"1909","visit","glove",2,0,29,1,16,2.212,16,0.444444444444444,1,1,1,0.681,"glove",1,NA,3.91
"1909","shrink","mafia",10,1,30,1,12,1.604,10,0.277777777777778,1,1,1,0.946,"mafia",1,NA,3.528
"1909","nerve","bumper",11,1,31,1,36,1.291,27,0.75,0,1,0,0.748,"",NA,NA,NA
"1909","pea","bathtub",12,1,32,1,31,2.324,21,0.583333333333333,0,1,0,1.7,"",NA,NA,NA
"1909","chicken","beet",1,0,33,1,8,1.652,18,0.5,1,1,1,0.682,"beet",1,NA,8.613
"1909","caring","skirt",1,0,34,1,42,1.459,24,0.666666666666667,0,1,0,0.843,"",NA,NA,NA
"1909","calf","annoy",2,0,35,1,7,1.377,11,0.305555555555556,1,1,1,1.104,"annoy",1,NA,4.757
"1909","remind","foam",2,0,36,1,38,1.41,8,0.222222222222222,1,1,1,0.838,"otter",0,NA,2.999
"1916","bias","sirloin",1,0,1,1,37,5.057,8,0.222222222222222,0,0,1,1.759,"",NA,NA,NA
"1916","find","clown",2,0,2,1,25,7.563,10,0.277777777777778,0,0,1,2.503,"",NA,NA,NA
"1916","want","ascent",10,1,3,1,28,3.082,16,0.444444444444444,1,0,0,2.447,"clown",0,NA,20.729
"1916","prison","loaf",3,0,4,1,33,3.082,32,0.888888888888889,1,0,0,2.551,"beet",0,NA,7.007
"1916","biology","temper",2,0,5,1,19,2.571,36,1,1,0,0,1.839,"temper",1,NA,11.943
"1916","replace","roach",11,1,6,1,82,4.3,11,0.305555555555556,1,0,0,2.775,"bumper",0,NA,17.863
"1916","smother","surgery",3,0,7,1,34,4.435,5,0.138888888888889,0,0,1,4.59,"",NA,NA,NA
"1916","calf","annoy",2,0,8,1,25,2.844,7,0.194444444444444,0,0,1,2.815,"",NA,NA,NA
"1916","chicken","beet",1,0,9,1,23,3.714,30,0.833333333333333,1,0,0,3.591,"process",0,NA,14.427
"1916","anger","decay",1,0,10,1,82,2.652,34,0.944444444444444,1,0,0,2.088,"dont know",0,NA,20.919
"1916","process","joker",10,1,11,1,33,4.547,21,0.583333333333333,1,0,0,2.335,"joker",1,NA,5.519
"1916","link","crisis",12,1,12,1,88,2.498,26,0.722222222222222,0,0,1,1.239,"",NA,NA,NA
"1916","mill","feast",12,1,13,1,57,5.043,14,0.388888888888889,1,0,0,0.991,"link",0,NA,14.639
"1916","bleach","ruin",10,1,14,1,99,3.49,9,0.25,0,0,1,1.127,"",NA,NA,NA
"1916","pork","emperor",10,1,15,1,89,5.995,12,0.333333333333333,1,0,0,5.112,"grip",0,NA,16.253
"1916","knock","otter",12,1,16,1,70,5.827,24,0.666666666666667,0,0,1,0.959,"",NA,NA,NA
"1916","date","laugh",12,1,17,1,82,6.789,3,0.0833333333333333,0,0,1,5.255,"",NA,NA,NA
"1916","copy","bedroom",3,0,18,1,64,3.043,35,0.972222222222222,1,0,0,1.351,"bedroom",1,NA,7.372
"1916","visit","glove",2,0,19,1,21,3.753,4,0.111111111111111,0,0,1,5.208,"",NA,NA,NA
"1916","remind","foam",2,0,20,1,23,4.785,6,0.166666666666667,0,0,1,1.463,"",NA,NA,NA
"1916","caring","skirt",1,0,21,1,77,3.74,23,0.638888888888889,0,0,1,1.271,"",NA,NA,NA
"1916","pea","bathtub",12,1,22,1,70,4.852,25,0.694444444444444,0,0,1,1.015,"",NA,NA,NA
"1916","bullet","walkway",11,1,23,1,32,4.77,15,0.416666666666667,1,0,0,1.328,"grip",0,NA,22.048
"1916","need","faucet",11,1,24,1,94,3.323,13,0.361111111111111,0,0,1,3.304,"",NA,NA,NA
"1916","port","cinema",2,0,25,1,28,11.677,1,0.0277777777777778,1,0,0,-99,"floor",0,NA,22.781
"1916","rock","milk",10,1,26,1,70,4.082,18,0.5,0,0,1,1.144,"",NA,NA,NA
"1916","fan","feature",1,0,27,1,100,3.835,29,0.805555555555556,1,0,0,10.103,"need",0,NA,9.702
"1916","glue","force",11,1,28,1,32,2.738,27,0.75,1,0,0,1.591,"force",1,NA,12.399
"1916","fee","chowder",3,0,29,1,63,4.036,28,0.777777777777778,1,0,0,10.047,"bathtub",0,NA,8.351
"1916","bacon","feud",3,0,30,1,86,3.419,22,0.611111111111111,0,0,1,1.271,"",NA,NA,NA
"1916","shrink","mafia",10,1,31,1,89,7.075,17,0.472222222222222,0,0,1,1.399,"",NA,NA,NA
"1916","capital","figure",3,0,32,1,76,2.868,19,0.527777777777778,1,0,0,1.303,"leader",0,NA,23.188
"1916","climax","saucer",11,1,33,1,63,3.036,33,0.916666666666667,1,0,0,1.911,"need",0,NA,9.583
"1916","nerve","bumper",11,1,34,1,82,5.228,20,0.555555555555556,0,0,1,2.783,"",NA,NA,NA
"1916","grip","beach",12,1,35,1,41,5.795,31,0.861111111111111,1,0,0,3.015,"remind",0,NA,8.862
"1916","plant","worm",1,0,36,1,94,4.546,2,0.0555555555555556,0,0,1,11.745,"",NA,NA,NA
"1997","shrink","mafia",10,1,1,1,100,2.681,5,0.138888888888889,1,1,1,0.928,"mafia",1,NA,8.404
"1997","plant","worm",1,0,2,1,100,1.79,17,0.472222222222222,0,1,0,0.717,"",NA,NA,NA
"1997","find","clown",2,0,3,1,100,2.442,9,0.25,0,1,0,0.892,"",NA,NA,NA
"1997","date","laugh",12,1,4,1,100,4.838,21,0.583333333333333,1,1,1,0.734,"laugh",1,NA,15.418
"1997","chicken","beet",1,0,5,1,100,2.037,31,0.861111111111111,0,1,0,0.662,"",NA,NA,NA
"1997","link","crisis",12,1,6,1,100,1.908,16,0.444444444444444,1,1,1,0.908,"crisis",1,NA,6.557
"1997","copy","bedroom",3,0,7,1,100,7.537,33,0.916666666666667,0,1,0,0.991,"",NA,NA,NA
"1997","biology","temper",2,0,8,1,100,2.286,19,0.527777777777778,0,1,0,1.14,"",NA,NA,NA
"1997","pea","bathtub",12,1,9,1,100,12.854,24,0.666666666666667,1,1,1,0.844,"bathtub",1,NA,6.79
"1997","climax","saucer",11,1,10,1,100,3.03,2,0.0555555555555556,1,1,1,17.573,"saucer",1,NA,12.05
"1997","remind","foam",2,0,11,1,100,2.21,26,0.722222222222222,0,1,0,0.807,"",NA,NA,NA
"1997","mill","feast",12,1,12,1,100,1.988,29,0.805555555555556,1,1,1,0.701,"feast",1,NA,8.422
"1997","prison","loaf",3,0,13,1,100,2.619,36,1,1,1,1,1.365,"loaf",1,NA,8.814
"1997","bullet","walkway",11,1,14,1,100,2.295,15,0.416666666666667,1,1,1,0.846,"walkway",1,NA,11.504
"1997","calf","annoy",2,0,15,1,100,2.047,27,0.75,0,1,0,0.846,"",NA,NA,NA
"1997","nerve","bumper",11,1,16,1,100,2.326,6,0.166666666666667,1,1,1,0.847,"roach",0,NA,23.525
"1997","knock","otter",12,1,17,1,100,2.05,7,0.194444444444444,1,1,1,1.059,"otter",1,NA,8.197
"1997","visit","glove",2,0,18,1,100,1.985,30,0.833333333333333,0,1,0,0.82,"",NA,NA,NA
"1997","capital","figure",3,0,19,1,100,2.313,4,0.111111111111111,0,1,0,2.988,"",NA,NA,NA
"1997","fan","feature",1,0,20,1,100,1.75,20,0.555555555555556,0,1,0,0.706,"",NA,NA,NA
"1997","caring","skirt",1,0,21,1,100,2.218,34,0.944444444444444,0,1,0,1.033,"",NA,NA,NA
"1997","pork","emperor",10,1,22,1,100,2.014,32,0.888888888888889,1,1,1,0.773,"emporer",0,NA,5.972
"1997","want","ascent",10,1,23,1,100,2.104,22,0.611111111111111,1,1,1,0.855,"ascent ",0,NA,12.934
"1997","replace","roach",11,1,24,1,100,2.527,11,0.305555555555556,1,1,1,0.855,"reach",0,NA,7.07
"1997","smother","surgery",3,0,25,1,100,3.84,3,0.0833333333333333,0,1,0,1.053,"",NA,NA,NA
"1997","fee","chowder",3,0,26,1,100,23.773,25,0.694444444444444,0,1,0,0.856,"",NA,NA,NA
"1997","bacon","feud",3,0,27,1,100,2.176,8,0.222222222222222,0,1,0,0.837,"",NA,NA,NA
"1997","rock","milk",10,1,28,1,100,14.497,10,0.277777777777778,0,1,0,1.055,"",NA,NA,NA
"1997","grip","beach",12,1,29,1,100,2.682,18,0.5,1,1,1,0.628,"beach",1,NA,8.764
"1997","need","faucet",11,1,30,1,100,1.856,35,0.972222222222222,1,1,1,0.717,"faucet",1,NA,10.661
"1997","bias","sirloin",1,0,31,1,100,4.705,1,0.0277777777777778,0,1,0,-99,"",NA,NA,NA
"1997","process","joker",10,1,32,1,100,1.78,12,0.333333333333333,1,1,1,0.806,"cinema",0,NA,12.136
"1997","anger","decay",1,0,33,1,100,3.642,23,0.638888888888889,0,1,0,0.743,"",NA,NA,NA
"1997","glue","force",11,1,34,1,100,2.065,13,0.361111111111111,1,1,1,0.66,"force",1,NA,8.562
"1997","port","cinema",2,0,35,1,100,2.139,14,0.388888888888889,0,1,0,0.741,"",NA,NA,NA
"1997","bleach","ruin",10,1,36,1,100,2.345,28,0.777777777777778,1,1,1,0.861,"ruin",1,NA,18.635
"2009","bacon","feud",3,0,1,1,29,33.784,12,0.333333333333333,0,1,0,0.918,"",NA,NA,NA
"2009","rock","milk",10,1,2,1,35,4.41,36,1,1,1,1,1.046,"milk",1,NA,14.498
"2009","mill","feast",12,1,3,1,37,4.534,14,0.388888888888889,0,1,0,2.334,"",NA,NA,NA
"2009","glue","force",11,1,4,1,30,8.626,18,0.5,0,1,0,0.95,"",NA,NA,NA
"2009","smother","surgery",3,0,5,1,32,189.59,20,0.555555555555556,1,1,1,6.8,"surgery",1,NA,4.828
"2009","pea","bathtub",12,1,6,1,29,10.602,17,0.472222222222222,0,1,0,0.806,"",NA,NA,NA
"2009","knock","otter",12,1,7,1,41,10.514,7,0.194444444444444,0,1,0,1.146,"",NA,NA,NA
"2009","need","faucet",11,1,8,1,36,4.48,35,0.972222222222222,1,1,1,7.692,"faucet",1,NA,15.404
"2009","visit","glove",2,0,9,1,38,18.546,10,0.277777777777778,0,1,0,0.96,"",NA,NA,NA
"2009","replace","roach",11,1,10,1,35,10.786,8,0.222222222222222,0,1,0,0.808,"",NA,NA,NA
"2009","copy","bedroom",3,0,11,1,42,7.898,21,0.583333333333333,1,1,1,1.524,"bedroom",1,NA,7.356
"2009","bullet","walkway",11,1,12,1,38,7,29,0.805555555555556,1,1,1,1.24,"walkway",1,NA,7.54
"2009","remind","foam",2,0,13,1,24,6.238,15,0.416666666666667,0,1,0,0.854,"",NA,NA,NA
"2009","nerve","bumper",11,1,14,1,38,6.562,32,0.888888888888889,1,1,1,1.048,"bumper",1,NA,5.42
"2009","plant","worm",1,0,15,1,40,7.014,2,0.0555555555555556,0,1,0,23.052,"",NA,NA,NA
"2009","bleach","ruin",10,1,16,1,33,5.596,27,0.75,1,1,1,0.774,"ruin",1,NA,4.142
"2009","want","ascent",10,1,17,1,58,3.938,30,0.833333333333333,1,1,1,0.79,"need",0,NA,50.552
"2009","caring","skirt",1,0,18,1,32,11.442,5,0.138888888888889,0,1,0,0.87,"",NA,NA,NA
"2009","climax","saucer",11,1,19,1,32,68.39,23,0.638888888888889,1,1,1,0.846,"saucer",1,NA,6.864
"2009","port","cinema",2,0,20,1,32,4.14,19,0.527777777777778,1,1,1,1.262,"cinema",1,NA,8.918
"2009","capital","figure",3,0,21,1,35,13.846,6,0.166666666666667,0,1,0,0.918,"",NA,NA,NA
"2009","chicken","beet",1,0,22,1,30,7.042,11,0.305555555555556,0,1,0,1.102,"",NA,NA,NA
"2009","fan","feature",1,0,23,1,32,6.786,24,0.666666666666667,1,1,1,1.028,"feature",1,NA,12.306
"2009","find","clown",2,0,24,1,37,5.316,25,0.694444444444444,1,1,1,0.966,"clown",1,NA,14.502
"2009","anger","decay",1,0,25,1,40,4.828,34,0.944444444444444,1,1,1,0.878,"decay",1,NA,10.606
"2009","fee","chowder",3,0,26,1,44,9.174,1,0.0277777777777778,0,1,0,-99,"",NA,NA,NA
"2009","calf","annoy",2,0,27,1,28,6.618,16,0.444444444444444,0,1,0,0.852,"",NA,NA,NA
"2009","bias","sirloin",1,0,28,1,42,4.212,33,0.916666666666667,1,1,1,0.862,"sirloin",1,NA,8.258
"2009","prison","loaf",3,0,29,1,42,7.404,31,0.861111111111111,1,1,1,2.614,"loaf",1,NA,13.406
"2009","pork","emperor",10,1,30,1,33,3.732,9,0.25,0,1,0,0.838,"",NA,NA,NA
"2009","grip","beach",12,1,31,1,33,14.378,3,0.0833333333333333,0,1,0,2.046,"",NA,NA,NA
"2009","process","joker",10,1,32,1,37,4.63,28,0.777777777777778,1,1,1,0.678,"joker",1,NA,6.116
"2009","link","crisis",12,1,33,1,32,10.386,13,0.361111111111111,0,1,0,0.862,"",NA,NA,NA
"2009","date","laugh",12,1,34,1,34,7.172,22,0.611111111111111,1,1,1,1.496,"laugh",1,NA,8.636
"2009","biology","temper",2,0,35,1,37,21.512,4,0.111111111111111,0,1,0,0.904,"",NA,NA,NA
"2009","shrink","mafia",10,1,36,1,41,9.498,26,0.722222222222222,1,1,1,0.832,"mafia",1,NA,4.214
"2085","calf","annoy",2,0,1,1,79,5.398,21,0.583333333333333,1,1,1,0.768,"annoy",1,NA,5.156
"2085","biology","temper",2,0,2,1,83,4.291,32,0.888888888888889,1,1,1,1.899,"temper",1,NA,6.667
"2085","link","crisis",12,1,3,1,96,2.634,18,0.5,0,1,0,1.153,"",NA,NA,NA
"2085","capital","figure",3,0,4,1,88,2.596,34,0.944444444444444,1,1,1,0.885,"figure",1,NA,4.048
"2085","prison","loaf",3,0,5,1,92,6.422,31,0.861111111111111,0,1,0,0.978,"",NA,NA,NA
"2085","pork","emperor",10,1,6,1,84,4.887,30,0.833333333333333,1,1,1,0.752,"emperor",1,NA,12.965
"2085","process","joker",10,1,7,1,95,7.007,16,0.444444444444444,0,1,0,0.94,"",NA,NA,NA
"2085","bacon","feud",3,0,8,1,86,2.832,27,0.75,1,1,1,0.996,"feud",1,NA,3.461
"2085","fan","feature",1,0,9,1,86,9.272,1,0.0277777777777778,1,1,1,-99,"feature",1,NA,3.641
"2085","remind","foam",2,0,10,1,71,4.018,7,0.194444444444444,1,1,1,2.053,"foam",1,NA,5.401
"2085","date","laugh",12,1,11,1,100,3.013,15,0.416666666666667,0,1,0,1.129,"",NA,NA,NA
"2085","shrink","mafia",10,1,12,1,89,4.648,2,0.0555555555555556,1,1,1,4.467,"mafia",1,NA,3.765
"2085","find","clown",2,0,13,1,84,3.945,36,1,0,1,0,1.007,"",NA,NA,NA
"2085","bias","sirloin",1,0,14,1,77,3.966,23,0.638888888888889,1,1,1,2.821,"sirloin",1,NA,8.314
"2085","nerve","bumper",11,1,15,1,94,4.186,12,0.333333333333333,0,1,0,2.03,"",NA,NA,NA
"2085","fee","chowder",3,0,16,1,78,3.936,14,0.388888888888889,1,1,1,1.575,"chowder",1,NA,6.822
"2085","grip","beach",12,1,17,1,91,4.087,25,0.694444444444444,0,1,0,1.014,"",NA,NA,NA
"2085","rock","milk",10,1,18,1,100,3.058,22,0.611111111111111,1,1,1,0.878,"milk",1,NA,3.589
"2085","climax","saucer",11,1,19,1,96,3.944,10,0.277777777777778,0,1,0,3.145,"",NA,NA,NA
"2085","visit","glove",2,0,20,1,78,4.315,33,0.916666666666667,1,1,1,2.348,"glove",1,NA,9.568
"2085","bullet","walkway",11,1,21,1,98,9.584,6,0.166666666666667,0,1,0,0.799,"",NA,NA,NA
"2085","replace","roach",11,1,22,1,94,2.924,28,0.777777777777778,0,1,0,0.943,"",NA,NA,NA
"2085","port","cinema",2,0,23,1,80,5.351,35,0.972222222222222,1,1,1,0.917,"cinema",1,NA,7.337
"2085","smother","surgery",3,0,24,1,91,3.248,26,0.722222222222222,1,1,1,0.781,"surgery",1,NA,8.969
"2085","anger","decay",1,0,25,1,92,3.241,11,0.305555555555556,1,1,1,0.816,"decay",1,NA,5.389
"2085","caring","skirt",1,0,26,1,81,2.789,29,0.805555555555556,1,1,1,0.711,"skirt",1,NA,10.566
"2085","plant","worm",1,0,27,1,100,3.402,13,0.361111111111111,1,1,1,1.447,"worm",1,NA,3.178
"2085","chicken","beet",1,0,28,1,90,9.347,3,0.0833333333333333,0,1,0,2.602,"",NA,NA,NA
"2085","pea","bathtub",12,1,29,1,95,5.102,4,0.111111111111111,0,1,0,1.251,"",NA,NA,NA
"2085","want","ascent",10,1,30,1,94,2.889,17,0.472222222222222,0,1,0,1.422,"",NA,NA,NA
"2085","glue","force",11,1,31,1,94,2.528,9,0.25,0,1,0,1.143,"",NA,NA,NA
"2085","bleach","ruin",10,1,32,1,98,5.47,5,0.138888888888889,0,1,0,4.674,"",NA,NA,NA
"2085","knock","otter",12,1,33,1,88,4.114,20,0.555555555555556,0,1,0,0.893,"",NA,NA,NA
"2085","copy","bedroom",3,0,34,1,82,5.863,8,0.222222222222222,1,1,1,2.703,"bedroom",1,NA,7.419
"2085","need","faucet",11,1,35,1,94,3.556,19,0.527777777777778,0,1,0,1.11,"",NA,NA,NA
"2085","mill","feast",12,1,36,1,90,4.823,24,0.666666666666667,0,1,0,0.933,"",NA,NA,NA
"2231","process","joker",10,1,1,1,20,2.987,27,0.75,0,1,0,1.075,"",NA,NA,NA
"2231","pea","bathtub",12,1,2,1,55,3.617,30,0.833333333333333,0,1,0,1.132,"",NA,NA,NA
"2231","calf","annoy",2,0,3,1,30,3.666,6,0.166666666666667,1,1,1,1.334,"figure",0,NA,11.505
"2231","need","faucet",11,1,4,1,15,5.532,29,0.805555555555556,0,1,0,0.936,"",NA,NA,NA
"2231","find","clown",2,0,5,1,20,4.471,12,0.333333333333333,1,1,1,1.207,"clown",1,NA,9.91
"2231","knock","otter",12,1,6,1,25,2.893,8,0.222222222222222,1,1,1,1.248,"wood",0,NA,5.468
"2231","bias","sirloin",1,0,7,1,30,2.481,32,0.888888888888889,0,1,0,1.482,"",NA,NA,NA
"2231","anger","decay",1,0,8,1,75,6.755,2,0.0555555555555556,1,1,1,9.442,"decay",1,NA,14.869
"2231","fee","chowder",3,0,9,1,30,3.319,9,0.25,1,1,1,1.334,"chowder",1,NA,9.888
"2231","date","laugh",12,1,10,1,65,3.582,20,0.555555555555556,0,1,0,4.133,"",NA,NA,NA
"2231","want","ascent",10,1,11,1,25,3.901,15,0.416666666666667,1,1,1,1.139,"need",0,NA,10.859
"2231","pork","emperor",10,1,12,1,60,4.03,35,0.972222222222222,0,1,0,0.952,"",NA,NA,NA
"2231","bullet","walkway",11,1,13,1,35,3.625,14,0.388888888888889,1,1,1,1.272,"walkway",1,NA,6.181
"2231","prison","loaf",3,0,14,1,75,3.086,23,0.638888888888889,0,1,0,1.043,"",NA,NA,NA
"2231","plant","worm",1,0,15,1,80,4.704,24,0.666666666666667,0,1,0,1.302,"",NA,NA,NA
"2231","mill","feast",12,1,16,1,45,2.258,26,0.722222222222222,0,1,0,1.036,"",NA,NA,NA
"2231","chicken","beet",1,0,17,1,70,3.221,33,0.916666666666667,0,1,0,1.029,"",NA,NA,NA
"2231","nerve","bumper",11,1,18,1,20,3.204,10,0.277777777777778,1,1,1,1.107,"laugh",0,NA,11.245
"2231","smother","surgery",3,0,19,1,75,2.804,7,0.194444444444444,1,1,1,1.255,"surgery",1,NA,10.452
"2231","bacon","feud",3,0,20,1,25,5.335,5,0.138888888888889,1,1,1,1.344,"feast",0,NA,11.91
"2231","visit","glove",2,0,21,1,15,4.005,19,0.527777777777778,0,1,0,1.178,"",NA,NA,NA
"2231","copy","bedroom",3,0,22,1,40,2.126,34,0.944444444444444,0,1,0,1.309,"",NA,NA,NA
"2231","bleach","ruin",10,1,23,1,70,4.331,21,0.583333333333333,0,1,0,5.215,"",NA,NA,NA
"2231","capital","figure",3,0,24,1,60,3.577,13,0.361111111111111,1,1,1,1.319,"skip",0,NA,15.301
"2231","glue","force",11,1,25,1,55,2.555,16,0.444444444444444,1,1,1,1.248,"force",1,NA,6.944
"2231","grip","beach",12,1,26,1,30,2.491,4,0.111111111111111,1,1,1,1.201,"beach",1,NA,8.996
"2231","remind","foam",2,0,27,1,10,3.875,25,0.694444444444444,0,1,0,0.998,"",NA,NA,NA
"2231","climax","saucer",11,1,28,1,65,4.907,31,0.861111111111111,0,1,0,1.179,"",NA,NA,NA
"2231","link","crisis",12,1,29,1,29,3.546,3,0.0833333333333333,1,1,1,6.488,"crisis",1,NA,6.792
"2231","port","cinema",2,0,30,1,55,3.65,28,0.777777777777778,0,1,0,1.059,"",NA,NA,NA
"2231","rock","milk",10,1,31,1,25,5.852,17,0.472222222222222,1,1,1,1.359,"skip",0,NA,8.645
"2231","replace","roach",11,1,32,1,10,2.88,36,1,0,1,0,1.111,"",NA,NA,NA
"2231","biology","temper",2,0,33,1,30,14.213,1,0.0277777777777778,1,1,1,-99,"surgery",0,NA,14.765
"2231","shrink","mafia",10,1,34,1,15,4.221,11,0.305555555555556,1,1,1,1.442,"skip",0,NA,13.772
"2231","fan","feature",1,0,35,1,35,3.292,22,0.611111111111111,0,1,0,1.294,"",NA,NA,NA
"2231","caring","skirt",1,0,36,1,15,3.836,18,0.5,1,1,1,1.389,"skip",0,NA,12.034
"2232","mill","feast",12,1,1,1,74,3.065,8,0.222222222222222,0,0,1,1.147,"",NA,NA,NA
"2232","caring","skirt",1,0,2,1,64,2.836,6,0.166666666666667,0,0,1,1.612,"",NA,NA,NA
"2232","pea","bathtub",12,1,3,1,68,3.226,31,0.861111111111111,1,0,0,1.856,"bathtub",1,NA,8.21
"2232","nerve","bumper",11,1,4,1,73,2.662,9,0.25,0,0,1,1.611,"",NA,NA,NA
"2232","link","crisis",12,1,5,1,85,2.522,22,0.611111111111111,0,0,1,1.951,"",NA,NA,NA
"2232","process","joker",10,1,6,1,65,6.151,34,0.944444444444444,1,0,0,1.632,"paper",0,NA,62.77
"2232","fee","chowder",3,0,7,1,25,2.305,13,0.361111111111111,1,0,0,1.206,"water",0,NA,26.969
"2232","chicken","beet",1,0,8,1,63,4.574,3,0.0833333333333333,0,0,1,8.919,"",NA,NA,NA
"2232","bullet","walkway",11,1,9,1,73,3.089,19,0.527777777777778,0,0,1,4.465,"",NA,NA,NA
"2232","smother","surgery",3,0,10,1,34,14.851,16,0.444444444444444,1,0,0,6.362,"saucer",0,NA,35.734
"2232","glue","force",11,1,11,1,90,2.506,14,0.388888888888889,0,0,1,1.88,"",NA,NA,NA
"2232","bias","sirloin",1,0,12,1,26,3.435,28,0.777777777777778,1,0,0,4.372,"milk",0,NA,28.148
"2232","want","ascent",10,1,13,1,60,2.369,20,0.555555555555556,0,0,1,3.879,"",NA,NA,NA
"2232","anger","decay",1,0,14,1,38,1.461,24,0.666666666666667,1,0,0,5.113,"beef",0,NA,34.705
"2232","calf","annoy",2,0,15,1,25,2.491,29,0.805555555555556,1,0,0,1.182,"beach",0,NA,29.635
"2232","prison","loaf",3,0,16,1,28,4.434,1,0.0277777777777778,0,0,1,-99,"",NA,NA,NA
"2232","climax","saucer",11,1,17,1,69,3.491,7,0.194444444444444,0,0,1,2.438,"",NA,NA,NA
"2232","plant","worm",1,0,18,1,77,1.964,26,0.722222222222222,0,0,1,1.159,"",NA,NA,NA
"2232","rock","milk",10,1,19,1,80,2.609,10,0.277777777777778,0,0,1,3.409,"",NA,NA,NA
"2232","visit","glove",2,0,20,1,63,5.424,30,0.833333333333333,1,0,0,1.454,"bother",0,NA,19.329
"2232","remind","foam",2,0,21,1,21,3.199,12,0.333333333333333,1,0,0,1.194,"roach",0,NA,37.536
"2232","grip","beach",12,1,22,1,68,2.706,11,0.305555555555556,0,0,1,1.783,"",NA,NA,NA
"2232","replace","roach",11,1,23,1,37,3.14,32,0.888888888888889,1,0,0,1.168,"faucet",0,NA,8.854
"2232","bleach","ruin",10,1,24,1,82,4.489,21,0.583333333333333,0,0,1,1.623,"",NA,NA,NA
"2232","knock","otter",12,1,25,1,75,10.678,35,0.972222222222222,1,0,0,1.22,"rock",0,NA,6.709
"2232","need","faucet",11,1,26,1,80,6.025,5,0.138888888888889,0,0,1,7.193,"",NA,NA,NA
"2232","biology","temper",2,0,27,1,26,3.495,4,0.111111111111111,1,0,0,2.891,"glasses",0,NA,7.52
"2232","port","cinema",2,0,28,1,25,3.773,17,0.472222222222222,1,0,0,253.529,"beach",0,NA,34.794
"2232","copy","bedroom",3,0,29,1,30,5.062,25,0.694444444444444,1,0,0,1.709,"paste",0,NA,6.793
"2232","bacon","feud",3,0,30,1,24,3.003,2,0.0555555555555556,1,0,0,5.257,"emporer",0,NA,10.95
"2232","find","clown",2,0,31,1,71,1.862,18,0.5,0,0,1,1.366,"",NA,NA,NA
"2232","capital","figure",3,0,32,1,69,2.536,27,0.75,1,0,0,1.683,"child",0,NA,29.718
"2232","shrink","mafia",10,1,33,1,79,5.752,15,0.416666666666667,0,0,1,2.818,"",NA,NA,NA
"2232","date","laugh",12,1,34,1,98,3.649,36,1,1,0,0,1.463,"birthday",0,NA,6.165
"2232","fan","feature",1,0,35,1,32,2.957,23,0.638888888888889,0,0,1,1.468,"",NA,NA,NA
"2232","pork","emperor",10,1,36,1,69,2.442,33,0.916666666666667,1,0,0,1.989,"emporer",0,NA,4.916
"2287","caring","skirt",1,0,1,1,40,7.82,18,0.5,1,1,1,1.033,"skirt",1,NA,9.23
"2287","find","clown",2,0,2,1,86,5.528,35,0.972222222222222,1,1,1,1.244,"clown",1,NA,7.33
"2287","chicken","beet",1,0,3,1,72,7.132,13,0.361111111111111,1,1,1,1.083,"beet",1,NA,3.797
"2287","pea","bathtub",12,1,4,1,88,6.218,30,0.833333333333333,1,1,1,0.909,"bathtub",1,NA,7.349
"2287","glue","force",11,1,5,1,39,5.607,11,0.305555555555556,0,1,0,0.932,"",NA,NA,NA
"2287","anger","decay",1,0,6,1,64,6.48,14,0.388888888888889,0,1,0,1.667,"",NA,NA,NA
"2287","climax","saucer",11,1,7,1,21,7.07,12,0.333333333333333,0,1,0,0.94,"",NA,NA,NA
"2287","process","joker",10,1,8,1,86,9.648,25,0.694444444444444,1,1,1,1.078,"skip",0,NA,11.069
"2287","rock","milk",10,1,9,1,87,6.824,5,0.138888888888889,0,1,0,1.709,"",NA,NA,NA
"2287","biology","temper",2,0,10,1,61,7.043,22,0.611111111111111,0,1,0,0.98,"",NA,NA,NA
"2287","pork","emperor",10,1,11,1,45,9.866,19,0.527777777777778,0,1,0,1.427,"",NA,NA,NA
"2287","mill","feast",12,1,12,1,46,14.92,1,0.0277777777777778,0,1,0,-99,"",NA,NA,NA
"2287","smother","surgery",3,0,13,1,30,7.181,31,0.861111111111111,1,1,1,0.898,"surgery",1,NA,19.292
"2287","bullet","walkway",11,1,14,1,25,8.699,24,0.666666666666667,1,1,1,1.295,"walkway",1,NA,4.601
"2287","calf","annoy",2,0,15,1,30,4.944,23,0.638888888888889,0,1,0,1.26,"",NA,NA,NA
"2287","prison","loaf",3,0,16,1,76,6.686,15,0.416666666666667,0,1,0,1.004,"",NA,NA,NA
"2287","bleach","ruin",10,1,17,1,21,6.835,8,0.222222222222222,0,1,0,1.185,"",NA,NA,NA
"2287","link","crisis",12,1,18,1,48,6.341,33,0.916666666666667,1,1,1,0.876,"crisis",1,NA,4.495
"2287","bacon","feud",3,0,19,1,44,7.81,4,0.111111111111111,0,1,0,2.329,"",NA,NA,NA
"2287","remind","foam",2,0,20,1,77,7.943,7,0.194444444444444,1,1,1,1.304,"foam",1,NA,6.538
"2287","plant","worm",1,0,21,1,92,5.655,26,0.722222222222222,1,1,1,1.003,"worm",1,NA,4.122
"2287","nerve","bumper",11,1,22,1,75,7.564,10,0.277777777777778,1,1,1,1.075,"bumper",1,NA,7.981
"2287","bias","sirloin",1,0,23,1,3,6.233,36,1,1,1,1,1.128,"sirloin",1,NA,11.062
"2287","port","cinema",2,0,24,1,29,6.418,28,0.777777777777778,1,1,1,0.846,"skip",0,NA,3.821
"2287","need","faucet",11,1,25,1,60,5.945,21,0.583333333333333,0,1,0,1.138,"",NA,NA,NA
"2287","knock","otter",12,1,26,1,37,9.427,2,0.0555555555555556,1,1,1,7.966,"milk",0,NA,17.676
"2287","date","laugh",12,1,27,1,65,5.271,34,0.944444444444444,1,1,1,0.938,"laugh",1,NA,3.984
"2287","shrink","mafia",10,1,28,1,70,9.81,6,0.166666666666667,0,1,0,1.011,"",NA,NA,NA
"2287","fan","feature",1,0,29,1,71,5.865,16,0.444444444444444,0,1,0,1.108,"",NA,NA,NA
"2287","replace","roach",11,1,30,1,69,6.722,17,0.472222222222222,0,1,0,1.294,"",NA,NA,NA
"2287","want","ascent",10,1,31,1,5,6.199,29,0.805555555555556,1,1,1,0.813,"skip",0,NA,15.36
"2287","grip","beach",12,1,32,1,92,6.401,9,0.25,0,1,0,1.24,"",NA,NA,NA
"2287","copy","bedroom",3,0,33,1,85,5.899,32,0.888888888888889,1,1,1,0.972,"bedroom",1,NA,15.534
"2287","visit","glove",2,0,34,1,74,5.767,20,0.555555555555556,0,1,0,1.001,"",NA,NA,NA
"2287","fee","chowder",3,0,35,1,84,4.972,27,0.75,1,1,1,1.099,"chowder",1,NA,12.166
"2287","capital","figure",3,0,36,1,42,13.804,3,0.0833333333333333,0,1,0,1.039,"",NA,NA,NA
"2474","mill","feast",12,1,1,1,57,2.187,16,0.444444444444444,1,0,0,1.115,"loaf",0,NA,24.349
"2474","visit","glove",2,0,2,1,74,2.692,10,0.277777777777778,0,0,1,1.178,"",NA,NA,NA
"2474","need","faucet",11,1,3,1,67,2.163,3,0.0833333333333333,0,0,1,1.418,"",NA,NA,NA
"2474","anger","decay",1,0,4,1,43,3.006,8,0.222222222222222,1,0,0,1.19,"decay",1,NA,11.036
"2474","calf","annoy",2,0,5,1,71,1.695,6,0.166666666666667,0,0,1,1.039,"",NA,NA,NA
"2474","replace","roach",11,1,6,1,57,2.693,4,0.111111111111111,1,0,0,1.007,"faucet",0,NA,20.463
"2474","date","laugh",12,1,7,1,91,2.504,35,0.972222222222222,1,0,0,1.623,"laugh",1,NA,6.516
"2474","pork","emperor",10,1,8,1,72,2.246,5,0.138888888888889,0,0,1,1.191,"",NA,NA,NA
"2474","remind","foam",2,0,9,1,57,1.992,32,0.888888888888889,0,0,1,1.007,"",NA,NA,NA
"2474","chicken","beet",1,0,10,1,37,2.741,17,0.472222222222222,1,0,0,0.944,"beet",1,NA,4.704
"2474","port","cinema",2,0,11,1,56,1.96,36,1,1,0,0,1.164,"cloud",0,NA,10.416
"2474","want","ascent",10,1,12,1,72,3.312,18,0.5,0,0,1,0.801,"",NA,NA,NA
"2474","fan","feature",1,0,13,1,42,2.126,24,0.666666666666667,1,0,0,2.467,"fun",0,NA,17.908
"2474","nerve","bumper",11,1,14,1,58,2.463,34,0.944444444444444,1,0,0,1.199,"notice",0,NA,19.947
"2474","climax","saucer",11,1,15,1,80,1.908,31,0.861111111111111,0,0,1,1.299,"",NA,NA,NA
"2474","caring","skirt",1,0,16,1,36,2.009,26,0.722222222222222,1,0,0,1.172,"skirt",1,NA,8.431
"2474","prison","loaf",3,0,17,1,28,1.516,20,0.555555555555556,1,0,0,0.96,"loaf",1,NA,5.959
"2474","rock","milk",10,1,18,1,61,1.796,28,0.777777777777778,0,0,1,0.947,"",NA,NA,NA
"2474","copy","bedroom",3,0,19,1,74,2.435,2,0.0555555555555556,0,0,1,7.274,"",NA,NA,NA
"2474","capital","figure",3,0,20,1,61,2.737,30,0.833333333333333,1,0,0,1.171,"fund",0,NA,5.423
"2474","fee","chowder",3,0,21,1,38,2.7,11,0.305555555555556,1,0,0,0.887,"saucer",0,NA,14.682
"2474","find","clown",2,0,22,1,45,2.167,29,0.805555555555556,1,0,0,1.103,"lost",0,NA,12.489
"2474","pea","bathtub",12,1,23,1,87,3.013,19,0.527777777777778,0,0,1,1.016,"",NA,NA,NA
"2474","bias","sirloin",1,0,24,1,69,9.959,1,0.0277777777777778,1,0,0,-99,"sirloin",1,NA,9.77
"2474","bacon","feud",3,0,25,1,72,2.169,12,0.333333333333333,0,0,1,1.27,"",NA,NA,NA
"2474","process","joker",10,1,26,1,65,2.611,22,0.611111111111111,0,0,1,2.039,"",NA,NA,NA
"2474","knock","otter",12,1,27,1,38,2.679,23,0.638888888888889,0,0,1,2.079,"",NA,NA,NA
"2474","link","crisis",12,1,28,1,60,2.25,9,0.25,0,0,1,2.235,"",NA,NA,NA
"2474","glue","force",11,1,29,1,32,2.015,14,0.388888888888889,1,0,0,0.708,"faucet",0,NA,12.996
"2474","smother","surgery",3,0,30,1,69,2.012,13,0.361111111111111,0,0,1,1.023,"",NA,NA,NA
"2474","grip","beach",12,1,31,1,42,2.33,7,0.194444444444444,1,0,0,1.179,"force",0,NA,9.104
"2474","plant","worm",1,0,32,1,83,2.161,33,0.916666666666667,0,0,1,0.863,"",NA,NA,NA
"2474","bleach","ruin",10,1,33,1,90,2.239,15,0.416666666666667,0,0,1,0.879,"",NA,NA,NA
"2474","biology","temper",2,0,34,1,60,2.195,21,0.583333333333333,1,0,0,1.31,"process",0,NA,12.06
"2474","bullet","walkway",11,1,35,1,58,2.543,25,0.694444444444444,0,0,1,0.908,"",NA,NA,NA
"2474","shrink","mafia",10,1,36,1,53,1.472,27,0.75,1,0,0,1.039,"mafia",1,NA,7.98
"2544","nerve","bumper",11,1,1,1,14,4.397,33,0.916666666666667,1,0,0,0.952,"otter",0,NA,5.139
"2544","knock","otter",12,1,2,1,11,6.891,29,0.805555555555556,1,0,0,1.448,"otter",1,NA,4.431
"2544","bacon","feud",3,0,3,1,1,2.573,18,0.5,0,0,1,1.623,"",NA,NA,NA
"2544","mill","feast",12,1,4,1,15,11.747,23,0.638888888888889,1,0,0,1.8,"feast",1,NA,3.558
"2544","bleach","ruin",10,1,5,1,12,4.285,22,0.611111111111111,1,0,0,0.815,"clothes",0,NA,9.496
"2544","plant","worm",1,0,6,1,1,2.3,21,0.583333333333333,0,0,1,0.927,"",NA,NA,NA
"2544","need","faucet",11,1,7,1,17,3.188,35,0.972222222222222,1,0,0,1.815,"faucet",1,NA,6.478
"2544","fee","chowder",3,0,8,1,1,2.381,32,0.888888888888889,0,0,1,1.567,"",NA,NA,NA
"2544","smother","surgery",3,0,9,1,1,2.405,3,0.0833333333333333,0,0,1,2.872,"",NA,NA,NA
"2544","link","crisis",12,1,10,1,19,4.237,15,0.416666666666667,1,0,0,0.648,"drain",0,NA,29.228
"2544","find","clown",2,0,11,1,1,2.077,9,0.25,0,0,1,1.047,"",NA,NA,NA
"2544","chicken","beet",1,0,12,1,1,2.422,20,0.555555555555556,0,0,1,0.647,"",NA,NA,NA
"2544","biology","temper",2,0,13,1,1,1.789,14,0.388888888888889,0,0,1,0.848,"",NA,NA,NA
"2544","port","cinema",2,0,14,1,1,2.204,6,0.166666666666667,1,0,0,0.824,"mouse",0,NA,8.859
"2544","anger","decay",1,0,15,1,1,1.917,10,0.277777777777778,0,0,1,0.72,"",NA,NA,NA
"2544","climax","saucer",11,1,16,1,12,5.1,34,0.944444444444444,1,0,0,0.863,"saucer",1,NA,3.822
"2544","rock","milk",10,1,17,1,15,3.379,12,0.333333333333333,1,0,0,2.752,"glue",0,NA,6.456
"2544","remind","foam",2,0,18,1,1,2.077,25,0.694444444444444,0,0,1,0.999,"",NA,NA,NA
"2544","prison","loaf",3,0,19,1,1,2.268,11,0.305555555555556,0,0,1,0.728,"",NA,NA,NA
"2544","glue","force",11,1,20,1,17,4.348,28,0.777777777777778,1,0,0,2.175,"rock",0,NA,4.933
"2544","bullet","walkway",11,1,21,1,11,5.271,1,0.0277777777777778,0,0,1,-99,"",NA,NA,NA
"2544","date","laugh",12,1,22,1,15,3.276,31,0.861111111111111,1,0,0,0.87,"laugh",1,NA,5.855
"2544","pork","emperor",10,1,23,1,17,3.876,5,0.138888888888889,0,0,1,1.983,"",NA,NA,NA
"2544","bias","sirloin",1,0,24,1,1,1.683,4,0.111111111111111,0,0,1,1.865,"",NA,NA,NA
"2544","grip","beach",12,1,25,1,15,3.972,30,0.833333333333333,1,0,0,1.033,"beach",1,NA,4.468
"2544","calf","annoy",2,0,26,1,1,1.839,26,0.722222222222222,0,0,1,1.166,"",NA,NA,NA
"2544","pea","bathtub",12,1,27,1,17,4.428,19,0.527777777777778,1,0,0,0.855,"bathtub",1,NA,4.294
"2544","process","joker",10,1,28,1,14,4.421,24,0.666666666666667,1,0,0,1.952,"joker",1,NA,4.166
"2544","replace","roach",11,1,29,1,17,5.053,8,0.222222222222222,1,0,0,0.847,"faucet",0,NA,4.569
"2544","visit","glove",2,0,30,1,1,7.323,2,0.0555555555555556,1,0,0,2.544,"lake",0,NA,24.237
"2544","caring","skirt",1,0,31,1,1,2.083,27,0.75,0,0,1,1.407,"",NA,NA,NA
"2544","shrink","mafia",10,1,32,1,17,2.773,13,0.361111111111111,1,0,0,0.719,"mafia",1,NA,3.453
"2544","capital","figure",3,0,33,1,1,1.932,16,0.444444444444444,0,0,1,0.887,"",NA,NA,NA
"2544","fan","feature",1,0,34,1,1,1.948,36,1,0,0,1,0.647,"",NA,NA,NA
"2544","copy","bedroom",3,0,35,1,1,3.444,7,0.194444444444444,0,0,1,4.031,"",NA,NA,NA
"2544","want","ascent",10,1,36,1,16,3.292,17,0.472222222222222,1,0,0,1.623,"pork",0,NA,9.171
"2553","find","clown",2,0,1,1,1,3.188,12,0.333333333333333,0,1,0,2.432,"",NA,NA,NA
"2553","need","faucet",11,1,2,1,1,3.844,30,0.833333333333333,0,1,0,8.254,"",NA,NA,NA
"2553","anger","decay",1,0,3,1,1,2.548,32,0.888888888888889,1,1,1,1.39,"?",0,NA,9.248
"2553","nerve","bumper",11,1,4,1,1,15.348,26,0.722222222222222,0,1,0,13.182,"",NA,NA,NA
"2553","grip","beach",12,1,5,1,1,6.906,10,0.277777777777778,0,1,0,2.726,"",NA,NA,NA
"2553","port","cinema",2,0,6,1,1,2.602,13,0.361111111111111,1,1,1,3.862,"?",0,NA,6.234
"2553","pea","bathtub",12,1,7,1,80,8.332,18,0.5,1,1,1,3.624,"bathtub",1,NA,6.358
"2553","shrink","mafia",10,1,8,1,1,2.58,21,0.583333333333333,1,1,1,0.992,"Mafia",0,NA,5.79
"2553","remind","foam",2,0,9,1,1,10.068,36,1,1,1,1,4.638,"?",0,NA,3.99
"2553","bleach","ruin",10,1,10,1,1,6.196,25,0.694444444444444,0,1,0,2.046,"",NA,NA,NA
"2553","bias","sirloin",1,0,11,1,1,14.578,6,0.166666666666667,0,1,0,2.732,"",NA,NA,NA
"2553","fee","chowder",3,0,12,1,1,2.618,14,0.388888888888889,1,1,1,2.544,"?",0,NA,39.86
"2553","glue","force",11,1,13,1,1,2.646,27,0.75,0,1,0,8.222,"",NA,NA,NA
"2553","fan","feature",1,0,14,1,81,3.476,11,0.305555555555556,1,1,1,2.334,"find",0,NA,12.1
"2553","bacon","feud",3,0,15,1,1,6.084,34,0.944444444444444,1,1,1,1.528,"?",0,NA,4.326
"2553","link","crisis",12,1,16,1,1,7.18,23,0.638888888888889,0,1,0,0.854,"",NA,NA,NA
"2553","biology","temper",2,0,17,1,1,4.276,19,0.527777777777778,0,1,0,35.662,"",NA,NA,NA
"2553","prison","loaf",3,0,18,1,1,7.402,29,0.805555555555556,1,1,1,1.232,"?",0,NA,4.54
"2553","date","laugh",12,1,19,1,1,6.922,17,0.472222222222222,1,1,1,1.654,"?",0,NA,4.046
"2553","smother","surgery",3,0,20,1,1,2.46,8,0.222222222222222,0,1,0,13.54,"",NA,NA,NA
"2553","calf","annoy",2,0,21,1,1,26.786,2,0.0555555555555556,0,1,0,7.1,"",NA,NA,NA
"2553","bullet","walkway",11,1,22,1,1,12.54,28,0.777777777777778,1,1,1,12.214,"?",0,NA,4.964
"2553","rock","milk",10,1,23,1,93,3.612,16,0.444444444444444,0,1,0,21.686,"",NA,NA,NA
"2553","caring","skirt",1,0,24,1,1,2.496,15,0.416666666666667,0,1,0,2.31,"",NA,NA,NA
"2553","want","ascent",10,1,25,1,1,6.25,20,0.555555555555556,0,1,0,1.208,"",NA,NA,NA
"2553","chicken","beet",1,0,26,1,89,3.17,9,0.25,1,1,1,5.518,"beets",0,NA,5.948
"2553","plant","worm",1,0,27,1,100,8.504,7,0.194444444444444,1,1,1,1.352,"worm",1,NA,5.312
"2553","knock","otter",12,1,28,1,1,4.112,1,0.0277777777777778,0,1,0,-99,"",NA,NA,NA
"2553","process","joker",10,1,29,1,1,2.486,22,0.611111111111111,1,1,1,7.038,"?",0,NA,12.234
"2553","visit","glove",2,0,30,1,1,3.7,24,0.666666666666667,1,1,1,8.598,"?",0,NA,6.38
"2553","mill","feast",12,1,31,1,1,1037.878,4,0.111111111111111,0,1,0,2.198,"",NA,NA,NA
"2553","capital","figure",3,0,32,1,1,30.708,33,0.916666666666667,1,1,1,3.254,"?",0,NA,9.866
"2553","climax","saucer",11,1,33,1,1,6.108,35,0.972222222222222,1,1,1,1.606,"?",0,NA,3.55
"2553","replace","roach",11,1,34,1,73,2.452,31,0.861111111111111,1,1,1,10.924,"ruin",0,NA,5.07
"2553","pork","emperor",10,1,35,1,1,13.834,3,0.0833333333333333,0,1,0,3.12,"",NA,NA,NA
"2553","copy","bedroom",3,0,36,1,1,13.814,5,0.138888888888889,0,1,0,2.022,"",NA,NA,NA
"2730","rock","milk",10,1,1,1,30,14.874,31,0.861111111111111,0,0,1,0.664,"",NA,NA,NA
"2730","link","crisis",12,1,2,1,16,5.443,7,0.194444444444444,1,0,0,1.32,"milk",0,NA,3.308
"2730","mill","feast",12,1,3,1,13,2.688,1,0.0277777777777778,0,0,1,-99,"",NA,NA,NA
"2730","process","joker",10,1,4,1,34,2.034,35,0.972222222222222,0,0,1,0.576,"",NA,NA,NA
"2730","date","laugh",12,1,5,1,34,105.466,33,0.916666666666667,0,0,1,0.591,"",NA,NA,NA
"2730","want","ascent",10,1,6,1,13,1.092,11,0.305555555555556,1,0,0,0.64,"laugh",0,NA,6.706
"2730","pork","emperor",10,1,7,1,42,1.516,16,0.444444444444444,0,0,1,0.759,"",NA,NA,NA
"2730","bullet","walkway",11,1,8,1,11,1.404,17,0.472222222222222,1,0,0,0.591,"house",0,NA,5.109
"2730","fee","chowder",3,0,9,1,8,2.487,5,0.138888888888889,1,0,0,0.942,"bread",0,NA,6.256
"2730","caring","skirt",1,0,10,1,14,1.347,6,0.166666666666667,1,0,0,4.19,"chart",0,NA,2.84
"2730","plant","worm",1,0,11,1,17,1.339,36,1,0,0,1,0.576,"",NA,NA,NA
"2730","shrink","mafia",10,1,12,1,15,1.442,3,0.0833333333333333,1,0,0,1.863,"roach",0,NA,4.885
"2730","glue","force",11,1,13,1,12,1.634,8,0.222222222222222,1,0,0,0.951,"emperor",0,NA,2.776
"2730","bleach","ruin",10,1,14,1,19,3.168,19,0.527777777777778,1,0,0,0.647,"beach",0,NA,3.136
"2730","port","cinema",2,0,15,1,24,1.49,30,0.833333333333333,0,0,1,0.687,"",NA,NA,NA
"2730","find","clown",2,0,16,1,26,2.301,18,0.5,0,0,1,0.735,"",NA,NA,NA
"2730","prison","loaf",3,0,17,1,19,1.362,28,0.777777777777778,0,0,1,0.704,"",NA,NA,NA
"2730","fan","feature",1,0,18,1,20,1.649,20,0.555555555555556,1,0,0,1.687,"house",0,NA,3.008
"2730","anger","decay",1,0,19,1,11,2.474,4,0.111111111111111,1,0,0,0.679,"tree",0,NA,3.239
"2730","remind","foam",2,0,20,1,15,1.394,10,0.277777777777778,1,0,0,0.807,"road",0,NA,4.36
"2730","need","faucet",11,1,21,1,19,5.784,22,0.611111111111111,1,0,0,0.607,"bleach",0,NA,4.824
"2730","chicken","beet",1,0,22,1,12,1.459,13,0.361111111111111,1,0,0,0.824,"water",0,NA,5.824
"2730","replace","roach",11,1,23,1,19,1.153,14,0.388888888888889,0,0,1,0.984,"",NA,NA,NA
"2730","nerve","bumper",11,1,24,1,18,1.572,26,0.722222222222222,0,0,1,0.744,"",NA,NA,NA
"2730","copy","bedroom",3,0,25,1,36,2.595,12,0.333333333333333,0,0,1,0.664,"",NA,NA,NA
"2730","calf","annoy",2,0,26,1,22,1.341,29,0.805555555555556,0,0,1,0.888,"",NA,NA,NA
"2730","pea","bathtub",12,1,27,1,28,1.419,25,0.694444444444444,0,0,1,0.632,"",NA,NA,NA
"2730","climax","saucer",11,1,28,1,21,1.476,34,0.944444444444444,0,0,1,0.696,"",NA,NA,NA
"2730","visit","glove",2,0,29,1,13,2.01,2,0.0555555555555556,1,0,0,1.743,"SKIP",0,NA,4.075
"2730","capital","figure",3,0,30,1,14,1.645,27,0.75,1,0,0,1.136,"SKIP",0,NA,2.847
"2730","bacon","feud",3,0,31,1,17,1.388,32,0.888888888888889,0,0,1,1.456,"",NA,NA,NA
"2730","grip","beach",12,1,32,1,29,2.034,15,0.416666666666667,0,0,1,0.687,"",NA,NA,NA
"2730","smother","surgery",3,0,33,1,26,107.193,23,0.638888888888889,0,0,1,0.575,"",NA,NA,NA
"2730","biology","temper",2,0,34,1,18,1.443,24,0.666666666666667,1,0,0,1.063,"tree",0,NA,6.671
"2730","bias","sirloin",1,0,35,1,19,1.419,21,0.583333333333333,1,0,0,0.615,"SKIP",0,NA,2.631
"2730","knock","otter",12,1,36,1,9,1.37,9,0.25,1,0,0,1.016,"SKIP",0,NA,2.855
"2753","remind","foam",2,0,1,1,1,1.909,6,0.166666666666667,0,1,0,0.887,"",NA,NA,NA
"2753","plant","worm",1,0,2,1,1,1.773,32,0.888888888888889,0,1,0,0.911,"",NA,NA,NA
"2753","caring","skirt",1,0,3,1,1,1.81,16,0.444444444444444,0,1,0,1.192,"",NA,NA,NA
"2753","rock","milk",10,1,4,1,25,3.166,14,0.388888888888889,1,1,1,1.08,"milk",1,NA,5.119
"2753","nerve","bumper",11,1,5,1,2,4.036,2,0.0555555555555556,1,1,1,4.239,"sheet",0,NA,4.552
"2753","pea","bathtub",12,1,6,1,10,3.566,7,0.194444444444444,1,1,1,0.688,"bathtub",1,NA,4.968
"2753","calf","annoy",2,0,7,1,1,2.11,17,0.472222222222222,0,1,0,3.584,"",NA,NA,NA
"2753","biology","temper",2,0,8,1,1,1.843,35,0.972222222222222,0,1,0,1.167,"",NA,NA,NA
"2753","visit","glove",2,0,9,1,1,1.821,13,0.361111111111111,0,1,0,0.839,"",NA,NA,NA
"2753","want","ascent",10,1,10,1,1,10.093,3,0.0833333333333333,1,1,1,0.887,"plate",0,NA,4.635
"2753","prison","loaf",3,0,11,1,1,1.708,5,0.138888888888889,0,1,0,0.79,"",NA,NA,NA
"2753","replace","roach",11,1,12,1,3,3.963,29,0.805555555555556,1,1,1,0.807,"beans",0,NA,3.654
"2753","knock","otter",12,1,13,1,10,6.243,26,0.722222222222222,1,1,1,0.863,"otter",1,NA,4.04
"2753","pork","emperor",10,1,14,1,10,5.069,31,0.861111111111111,1,1,1,0.879,"emperor",1,NA,4.752
"2753","process","joker",10,1,15,1,2,4.398,18,0.5,1,1,1,0.639,"milk",0,NA,3.92
"2753","bias","sirloin",1,0,16,1,1,2.318,11,0.305555555555556,0,1,0,0.864,"",NA,NA,NA
"2753","find","clown",2,0,17,1,1,1.98,21,0.583333333333333,0,1,0,0.784,"",NA,NA,NA
"2753","date","laugh",12,1,18,1,5,5.422,8,0.222222222222222,1,1,1,0.935,"plate",0,NA,4.398
"2753","chicken","beet",1,0,19,1,1,2.467,1,0.0277777777777778,0,1,0,-99,"",NA,NA,NA
"2753","fan","feature",1,0,20,1,1,2.124,27,0.75,0,1,0,0.727,"",NA,NA,NA
"2753","anger","decay",1,0,21,1,1,2.116,23,0.638888888888889,0,1,0,0.991,"",NA,NA,NA
"2753","link","crisis",12,1,22,1,2,3.254,33,0.916666666666667,1,1,1,1.031,"escape",0,NA,5.131
"2753","bacon","feud",3,0,23,1,1,14.127,9,0.25,0,1,0,1.128,"",NA,NA,NA
"2753","shrink","mafia",10,1,24,1,5,4.997,10,0.277777777777778,1,1,1,1.608,"mafia",1,NA,4.703
"2753","fee","chowder",3,0,25,1,1,1.619,28,0.777777777777778,0,1,0,0.799,"",NA,NA,NA
"2753","climax","saucer",11,1,26,1,2,3.245,30,0.833333333333333,1,1,1,0.751,"plate",0,NA,3.95
"2753","bullet","walkway",11,1,27,1,3,4.053,25,0.694444444444444,1,1,1,0.807,"milk",0,NA,4.208
"2753","port","cinema",2,0,28,1,1,1.925,12,0.333333333333333,0,1,0,1.088,"",NA,NA,NA
"2753","need","faucet",11,1,29,1,4,6.437,19,0.527777777777778,1,1,1,0.687,"help",0,NA,3.909
"2753","smother","surgery",3,0,30,1,1,2.116,4,0.111111111111111,0,1,0,4.15,"",NA,NA,NA
"2753","capital","figure",3,0,31,1,1,2.709,15,0.416666666666667,0,1,0,0.767,"",NA,NA,NA
"2753","mill","feast",12,1,32,1,4,3.917,22,0.611111111111111,1,1,1,0.815,"pepper",0,NA,4.974
"2753","grip","beach",12,1,33,1,5,3.342,36,1,1,1,1,1.056,"plate",0,NA,6.623
"2753","bleach","ruin",10,1,34,1,2,6.414,24,0.666666666666667,1,1,1,0.991,"plate",0,NA,1.336
"2753","copy","bedroom",3,0,35,1,1,2.058,20,0.555555555555556,0,1,0,1.016,"",NA,NA,NA
"2753","glue","force",11,1,36,1,5,5.229,34,0.944444444444444,1,1,1,0.775,"force",1,NA,3.751
"2817","remind","foam",2,0,1,1,36,1.997,36,1,0,1,0,0.744,"",NA,NA,NA
"2817","biology","temper",2,0,2,1,58,1.788,12,0.333333333333333,1,1,1,0.976,"annoy ",0,NA,9.17
"2817","port","cinema",2,0,3,1,15,1.421,28,0.777777777777778,1,1,1,0.983,"cinema",1,NA,16.27
"2817","fee","chowder",3,0,4,1,9,3.246,17,0.472222222222222,0,1,0,0.967,"",NA,NA,NA
"2817","want","ascent",10,1,5,1,74,1.418,23,0.638888888888889,1,1,1,0.879,"ascend",0,NA,5.702
"2817","need","faucet",11,1,6,1,3,1.301,32,0.888888888888889,0,1,0,3.622,"",NA,NA,NA
"2817","pea","bathtub",12,1,7,1,64,1.742,16,0.444444444444444,1,1,1,0.847,"bathtub",1,NA,6.326
"2817","caring","skirt",1,0,8,1,38,2.198,34,0.944444444444444,1,1,1,1.079,"skirt",1,NA,9.256
"2817","link","crisis",12,1,9,1,62,1.877,7,0.194444444444444,1,1,1,1.335,"crisis",1,NA,6.278
"2817","bias","sirloin",1,0,10,1,14,2.757,20,0.555555555555556,0,1,0,1.559,"",NA,NA,NA
"2817","glue","force",11,1,11,1,14,2.19,8,0.222222222222222,1,1,1,1.015,"hard",0,NA,7.846
"2817","mill","feast",12,1,12,1,30,5.882,2,0.0555555555555556,1,1,1,9.246,"foam",0,NA,11.527
"2817","plant","worm",1,0,13,1,75,1.317,29,0.805555555555556,0,1,0,0.679,"",NA,NA,NA
"2817","climax","saucer",11,1,14,1,62,4.628,3,0.0833333333333333,0,1,0,10.303,"",NA,NA,NA
"2817","bacon","feud",3,0,15,1,55,1.82,4,0.111111111111111,0,1,0,1.095,"",NA,NA,NA
"2817","copy","bedroom",3,0,16,1,31,1.565,11,0.305555555555556,1,1,1,1.144,"bedroom",1,NA,6.075
"2817","calf","annoy",2,0,17,1,32,1.853,21,0.583333333333333,0,1,0,0.975,"",NA,NA,NA
"2817","date","laugh",12,1,18,1,66,1.62,31,0.861111111111111,1,1,1,1.063,"laugh",1,NA,4.806
"2817","smother","surgery",3,0,19,1,12,2.564,5,0.138888888888889,0,1,0,0.767,"",NA,NA,NA
"2817","rock","milk",10,1,20,1,25,4.06,9,0.25,0,1,0,1.344,"",NA,NA,NA
"2817","find","clown",2,0,21,1,66,1.477,27,0.75,1,1,1,0.919,"clown",1,NA,6.188
"2817","pork","emperor",10,1,22,1,65,1.956,19,0.527777777777778,0,1,0,0.776,"",NA,NA,NA
"2817","nerve","bumper",11,1,23,1,64,1.491,24,0.666666666666667,1,1,1,0.999,"skip",0,NA,9.54
"2817","prison","loaf",3,0,24,1,62,6.225,1,0.0277777777777778,1,1,1,-99,"loaf ",0,NA,4.704
"2817","bleach","ruin",10,1,25,1,76,2.757,10,0.277777777777778,0,1,0,1.199,"",NA,NA,NA
"2817","process","joker",10,1,26,1,62,2.013,14,0.388888888888889,0,1,0,0.791,"",NA,NA,NA
"2817","knock","otter",12,1,27,1,60,1.813,33,0.916666666666667,1,1,1,0.745,"otter",1,NA,4.933
"2817","chicken","beet",1,0,28,1,66,3.099,15,0.416666666666667,0,1,0,1.2,"",NA,NA,NA
"2817","bullet","walkway",11,1,29,1,21,2.036,25,0.694444444444444,1,1,1,0.75,"walkway ",0,NA,4.311
"2817","replace","roach",11,1,30,1,69,2.165,30,0.833333333333333,0,1,0,0.839,"",NA,NA,NA
"2817","anger","decay",1,0,31,1,28,2.707,18,0.5,1,1,1,1.143,"shrink ",0,NA,12.469
"2817","grip","beach",12,1,32,1,27,2.085,13,0.361111111111111,0,1,0,0.704,"",NA,NA,NA
"2817","shrink","mafia",10,1,33,1,67,1.998,22,0.611111111111111,1,1,1,0.943,"mafia ",0,NA,4.959
"2817","fan","feature",1,0,34,1,10,3.643,6,0.166666666666667,0,1,0,0.799,"",NA,NA,NA
"2817","capital","figure",3,0,35,1,64,1.869,26,0.722222222222222,0,1,0,1.352,"",NA,NA,NA
"2817","visit","glove",2,0,36,1,57,3.3,35,0.972222222222222,1,1,1,0.895,"skip",0,NA,10.212
"2973","pea","bathtub",12,1,1,1,100,3.209,22,0.611111111111111,1,1,1,1.264,"bathtub",1,NA,17.501
"2973","need","faucet",11,1,2,1,90,4.429,21,0.583333333333333,1,1,1,1.057,"faucet",1,NA,5.516
"2973","process","joker",10,1,3,1,100,1.793,20,0.555555555555556,1,1,1,1.004,"saucer",0,NA,9.795
"2973","climax","saucer",11,1,4,1,100,3.641,35,0.972222222222222,1,1,1,1.18,"saucer",1,NA,6.227
"2973","date","laugh",12,1,5,1,95,3.743,14,0.388888888888889,1,1,1,1.141,"laugh",1,NA,5.991
"2973","bleach","ruin",10,1,6,1,100,2.844,8,0.222222222222222,1,1,1,1.725,"ruin",1,NA,4.529
"2973","replace","roach",11,1,7,1,90,2.427,19,0.527777777777778,1,1,1,0.753,"roach",1,NA,3.201
"2973","chicken","beet",1,0,8,1,1,2.063,10,0.277777777777778,0,1,0,0.95,"",NA,NA,NA
"2973","knock","otter",12,1,9,1,100,1.951,24,0.666666666666667,1,1,1,1.003,"otter",1,NA,9.946
"2973","pork","emperor",10,1,10,1,100,1.829,11,0.305555555555556,1,1,1,1.054,"crisis",0,NA,9.569
"2973","bullet","walkway",11,1,11,1,90,6.621,6,0.166666666666667,1,1,1,7.861,"walkway",1,NA,5.723
"2973","nerve","bumper",11,1,12,1,90,3.479,15,0.416666666666667,1,1,1,1.684,"bumper",1,NA,4.1
"2973","biology","temper",2,0,13,1,6,3.446,31,0.861111111111111,0,1,0,0.844,"",NA,NA,NA
"2973","find","clown",2,0,14,1,10,8.978,9,0.25,0,1,0,1.086,"",NA,NA,NA
"2973","fee","chowder",3,0,15,1,10,3.106,17,0.472222222222222,0,1,0,1.437,"",NA,NA,NA
"2973","glue","force",11,1,16,1,90,3.384,33,0.916666666666667,1,1,1,1.081,"force",1,NA,4.001
"2973","fan","feature",1,0,17,1,1,9.717,36,1,0,1,0,0.993,"",NA,NA,NA
"2973","port","cinema",2,0,18,1,1,1.952,32,0.888888888888889,0,1,0,1.145,"",NA,NA,NA
"2973","remind","foam",2,0,19,1,1,5.874,2,0.0555555555555556,0,1,0,2.648,"",NA,NA,NA
"2973","capital","figure",3,0,20,1,10,4.181,18,0.5,0,1,0,0.857,"",NA,NA,NA
"2973","smother","surgery",3,0,21,1,15,4.366,34,0.944444444444444,0,1,0,1.801,"",NA,NA,NA
"2973","bacon","feud",3,0,22,1,10,3.332,13,0.361111111111111,0,1,0,0.903,"",NA,NA,NA
"2973","calf","annoy",2,0,23,1,1,3.44,25,0.694444444444444,0,1,0,0.983,"",NA,NA,NA
"2973","caring","skirt",1,0,24,1,1,2.079,12,0.333333333333333,0,1,0,1.615,"",NA,NA,NA
"2973","plant","worm",1,0,25,1,1,1.433,28,0.777777777777778,0,1,0,1.033,"",NA,NA,NA
"2973","visit","glove",2,0,26,1,1,7.498,5,0.138888888888889,0,1,0,3.395,"",NA,NA,NA
"2973","anger","decay",1,0,27,1,1,1.881,7,0.194444444444444,0,1,0,1.092,"",NA,NA,NA
"2973","bias","sirloin",1,0,28,1,1,1.959,23,0.638888888888889,0,1,0,1.182,"",NA,NA,NA
"2973","copy","bedroom",3,0,29,1,10,4.268,16,0.444444444444444,0,1,0,0.919,"",NA,NA,NA
"2973","want","ascent",10,1,30,1,90,3.754,27,0.75,1,1,1,1.384,"ascent",1,NA,11.577
"2973","rock","milk",10,1,31,1,95,3.464,26,0.722222222222222,1,1,1,1.058,"milk",1,NA,8.923
"2973","grip","beach",12,1,32,1,95,3.883,30,0.833333333333333,1,1,1,0.872,"beach",1,NA,4.023
"2973","link","crisis",12,1,33,1,90,3.406,3,0.0833333333333333,1,1,1,2.078,"crisis",1,NA,6.023
"2973","prison","loaf",3,0,34,1,1,3.735,4,0.111111111111111,0,1,0,1.251,"",NA,NA,NA
"2973","shrink","mafia",10,1,35,1,100,2.273,29,0.805555555555556,1,1,1,0.925,"feast",0,NA,9.776
"2973","mill","feast",12,1,36,1,100,3.595,1,0.0277777777777778,1,1,1,-99,"feast",1,NA,9.404
"3088","shrink","mafia",10,1,1,1,30,1.769,18,0.5,0,0,1,0.863,"",NA,NA,NA
"3088","chicken","beet",1,0,2,1,91,1.981,3,0.0833333333333333,0,0,1,1.773,"",NA,NA,NA
"3088","port","cinema",2,0,3,1,27,1.409,31,0.861111111111111,1,0,0,1.207,"emperor",0,NA,28.4
"3088","link","crisis",12,1,4,1,68,1.627,24,0.666666666666667,1,0,0,0.668,"crisis",1,NA,3.813
"3088","process","joker",10,1,5,1,68,2.417,27,0.75,1,0,0,0.784,"joker",1,NA,3.248
"3088","capital","figure",3,0,6,1,7,1.817,7,0.194444444444444,0,0,1,1.241,"",NA,NA,NA
"3088","bleach","ruin",10,1,7,1,67,3.825,30,0.833333333333333,1,0,0,0.698,"ruin",1,NA,3.362
"3088","calf","annoy",2,0,8,1,10,1.456,19,0.527777777777778,1,0,0,1.319,"annoy",1,NA,3.32
"3088","pea","bathtub",12,1,9,1,76,1.933,33,0.916666666666667,1,0,0,0.965,"bathtub",1,NA,3.924
"3088","smother","surgery",3,0,10,1,25,2.012,13,0.361111111111111,0,0,1,0.689,"",NA,NA,NA
"3088","grip","beach",12,1,11,1,23,1.574,15,0.416666666666667,0,0,1,0.877,"",NA,NA,NA
"3088","climax","saucer",11,1,12,1,26,1.662,10,0.277777777777778,0,0,1,1.672,"",NA,NA,NA
"3088","bacon","feud",3,0,13,1,88,1.612,4,0.111111111111111,0,0,1,6.167,"",NA,NA,NA
"3088","visit","glove",2,0,14,1,18,1.975,6,0.166666666666667,0,0,1,0.759,"",NA,NA,NA
"3088","replace","roach",11,1,15,1,63,1.653,29,0.805555555555556,1,0,0,0.76,"fudge",0,NA,16.522
"3088","glue","force",11,1,16,1,80,2.265,34,0.944444444444444,1,0,0,0.823,"force",1,NA,3.177
"3088","rock","milk",10,1,17,1,90,1.603,25,0.694444444444444,1,0,0,0.777,"milk",1,NA,2.386
"3088","date","laugh",12,1,18,1,96,3.953,1,0.0277777777777778,0,0,1,-99,"",NA,NA,NA
"3088","fan","feature",1,0,19,1,34,2.781,11,0.305555555555556,0,0,1,0.909,"",NA,NA,NA
"3088","bullet","walkway",11,1,20,1,40,1.668,14,0.388888888888889,0,0,1,0.777,"",NA,NA,NA
"3088","fee","chowder",3,0,21,1,19,1.621,20,0.555555555555556,1,0,0,4.669,"money",0,NA,5.847
"3088","knock","otter",12,1,22,1,76,1.589,5,0.138888888888889,0,0,1,0.806,"",NA,NA,NA
"3088","find","clown",2,0,23,1,53,1.761,26,0.722222222222222,1,0,0,1.272,"lamp",0,NA,5.287
"3088","anger","decay",1,0,24,1,28,1.511,21,0.583333333333333,1,0,0,0.893,"issue",0,NA,3.554
"3088","need","faucet",11,1,25,1,60,2.559,22,0.611111111111111,1,0,0,0.668,"tooth",0,NA,11.967
"3088","pork","emperor",10,1,26,1,77,2.011,35,0.972222222222222,1,0,0,0.745,"emperor",1,NA,4.049
"3088","want","ascent",10,1,27,1,71,1.708,28,0.777777777777778,1,0,0,0.845,"crisis",0,NA,7.163
"3088","nerve","bumper",11,1,28,1,71,1.602,32,0.888888888888889,1,0,0,0.901,"bumper",1,NA,4.567
"3088","copy","bedroom",3,0,29,1,24,6.133,17,0.472222222222222,0,0,1,2.881,"",NA,NA,NA
"3088","caring","skirt",1,0,30,1,10,1.607,36,1,1,0,0,0.885,"zoo",0,NA,4.985
"3088","biology","temper",2,0,31,1,30,1.614,2,0.0555555555555556,0,0,1,3.609,"",NA,NA,NA
"3088","bias","sirloin",1,0,32,1,32,1.913,12,0.333333333333333,0,0,1,0.91,"",NA,NA,NA
"3088","prison","loaf",3,0,33,1,90,2.135,8,0.222222222222222,0,0,1,1.161,"",NA,NA,NA
"3088","remind","foam",2,0,34,1,14,1.479,9,0.25,0,0,1,1.129,"",NA,NA,NA
"3088","plant","worm",1,0,35,1,92,1.707,16,0.444444444444444,0,0,1,1.036,"",NA,NA,NA
"3088","mill","feast",12,1,36,1,63,1.315,23,0.638888888888889,1,0,0,0.698,"feast",1,NA,10.839
"3133","visit","glove",2,0,1,1,14,2.003,4,0.111111111111111,1,1,1,1,"beach",0,NA,25.237
"3133","knock","otter",12,1,2,1,82,2.341,35,0.972222222222222,0,1,0,1.057,"",NA,NA,NA
"3133","glue","force",11,1,3,1,99,2.229,31,0.861111111111111,0,1,0,0.849,"",NA,NA,NA
"3133","bacon","feud",3,0,4,1,20,3.85,2,0.0555555555555556,1,1,1,2.956,"surgery",0,NA,21.106
"3133","find","clown",2,0,5,1,58,3.444,29,0.805555555555556,0,1,0,1.11,"",NA,NA,NA
"3133","pork","emperor",10,1,6,1,18,15.528,1,0.0277777777777778,1,1,1,-99,"emperor",1,NA,39.506
"3133","pea","bathtub",12,1,7,1,100,2.062,25,0.694444444444444,0,1,0,1.139,"",NA,NA,NA
"3133","bullet","walkway",11,1,8,1,57,2.36,6,0.166666666666667,1,1,1,1.223,"train",0,NA,26.643
"3133","fan","feature",1,0,9,1,85,2.534,34,0.944444444444444,0,1,0,1.177,"",NA,NA,NA
"3133","calf","annoy",2,0,10,1,59,3.168,18,0.5,1,1,1,1.035,"annoy",1,NA,4.816
"3133","bleach","ruin",10,1,11,1,84,2.608,12,0.333333333333333,1,1,1,1.189,"ruin",1,NA,9.044
"3133","mill","feast",12,1,12,1,26,1.858,11,0.305555555555556,1,1,1,1.244,"feast",1,NA,6.736
"3133","replace","roach",11,1,13,1,30,13.094,20,0.555555555555556,0,1,0,12.471,"",NA,NA,NA
"3133","biology","temper",2,0,14,1,36,2.802,15,0.416666666666667,1,1,1,1.046,"feature",0,NA,14.858
"3133","nerve","bumper",11,1,15,1,44,2.309,14,0.388888888888889,1,1,1,1.102,"skip",0,NA,6.169
"3133","caring","skirt",1,0,16,1,10,1.894,16,0.444444444444444,1,1,1,1.013,"ascent",0,NA,12.447
"3133","plant","worm",1,0,17,1,58,3.308,32,0.888888888888889,0,1,0,1.005,"",NA,NA,NA
"3133","copy","bedroom",3,0,18,1,84,2.095,23,0.638888888888889,0,1,0,0.988,"",NA,NA,NA
"3133","smother","surgery",3,0,19,1,16,1.663,24,0.666666666666667,0,1,0,0.821,"",NA,NA,NA
"3133","chicken","beet",1,0,20,1,80,1.573,33,0.916666666666667,0,1,0,6.169,"",NA,NA,NA
"3133","rock","milk",10,1,21,1,61,3.78,17,0.472222222222222,1,1,1,1.025,"milk",1,NA,5.698
"3133","climax","saucer",11,1,22,1,16,2.637,3,0.0833333333333333,1,1,1,11.864,"bias",0,NA,4.794
"3133","capital","figure",3,0,23,1,58,1.882,27,0.75,0,1,0,1.057,"",NA,NA,NA
"3133","remind","foam",2,0,24,1,26,2.195,9,0.25,1,1,1,1.283,"joker",0,NA,17.954
"3133","fee","chowder",3,0,25,1,29,1.737,21,0.583333333333333,0,1,0,2.767,"",NA,NA,NA
"3133","shrink","mafia",10,1,26,1,74,3.089,22,0.611111111111111,0,1,0,1.003,"",NA,NA,NA
"3133","bias","sirloin",1,0,27,1,2,2.191,36,1,0,1,0,1.105,"",NA,NA,NA
"3133","port","cinema",2,0,28,1,13,1.839,10,0.277777777777778,1,1,1,1.115,"saucer",0,NA,24.368
"3133","process","joker",10,1,29,1,30,3.616,5,0.138888888888889,1,1,1,1.309,"other",0,NA,12.295
"3133","prison","loaf",3,0,30,1,76,3.799,26,0.722222222222222,0,1,0,1.134,"",NA,NA,NA
"3133","link","crisis",12,1,31,1,90,2.386,13,0.361111111111111,1,1,1,1.307,"crisis",1,NA,9.121
"3133","anger","decay",1,0,32,1,99,2.464,19,0.527777777777778,0,1,0,2.503,"",NA,NA,NA
"3133","need","faucet",11,1,33,1,51,4.707,8,0.222222222222222,1,1,1,1.163,"skip",0,NA,39.496
"3133","want","ascent",10,1,34,1,7,1.751,7,0.194444444444444,1,1,1,1.222,"skip",0,NA,13.859
"3133","grip","beach",12,1,35,1,39,6.433,28,0.777777777777778,0,1,0,1.178,"",NA,NA,NA
"3133","date","laugh",12,1,36,1,100,2.044,30,0.833333333333333,0,1,0,1.266,"",NA,NA,NA
"3171","nerve","bumper",11,1,1,1,33,4.471,12,0.333333333333333,0,1,0,1.515,"",NA,NA,NA
"3171","mill","feast",12,1,2,1,93,3.628,22,0.611111111111111,1,1,1,1.888,"feast",1,NA,5.342
"3171","date","laugh",12,1,3,1,57,3.159,24,0.666666666666667,1,1,1,1.201,"laugh",1,NA,4.646
"3171","need","faucet",11,1,4,1,52,3.251,28,0.777777777777778,1,1,1,1.141,"faucet",1,NA,4.325
"3171","bacon","feud",3,0,5,1,40,7.691,1,0.0277777777777778,1,1,1,-99,"fued",0,NA,4.03
"3171","link","crisis",12,1,6,1,56,3.17,15,0.416666666666667,0,1,0,1.352,"",NA,NA,NA
"3171","replace","roach",11,1,7,1,51,7.16,2,0.0555555555555556,0,1,0,6.392,"",NA,NA,NA
"3171","pea","bathtub",12,1,8,1,96,4.298,20,0.555555555555556,1,1,1,1.742,"bathtub",1,NA,5.336
"3171","remind","foam",2,0,9,1,20,5.916,18,0.5,0,1,0,3.595,"",NA,NA,NA
"3171","knock","otter",12,1,10,1,55,4.377,16,0.444444444444444,0,1,0,1.599,"",NA,NA,NA
"3171","bleach","ruin",10,1,11,1,87,3.16,25,0.694444444444444,1,1,1,1.327,"ruin",1,NA,4.104
"3171","copy","bedroom",3,0,12,1,27,3.995,13,0.361111111111111,0,1,0,1.407,"",NA,NA,NA
"3171","anger","decay",1,0,13,1,28,5.726,21,0.583333333333333,1,1,1,2.31,"SKIP",0,NA,9.864
"3171","prison","loaf",3,0,14,1,16,6.233,34,0.944444444444444,1,1,1,1.19,"loaf",1,NA,7.019
"3171","visit","glove",2,0,15,1,1,2.709,26,0.722222222222222,1,1,1,1.261,"glove",1,NA,5.923
"3171","bias","sirloin",1,0,16,1,2,4.189,36,1,1,1,1,1.486,"SKIP",0,NA,7.598
"3171","plant","worm",1,0,17,1,37,3.409,31,0.861111111111111,1,1,1,1.315,"worm",1,NA,5.128
"3171","rock","milk",10,1,18,1,25,3.585,32,0.888888888888889,1,1,1,1.249,"milk",1,NA,4.419
"3171","fan","feature",1,0,19,1,56,2.97,10,0.277777777777778,0,1,0,1.273,"",NA,NA,NA
"3171","grip","beach",12,1,20,1,79,3.866,6,0.166666666666667,0,1,0,1.854,"",NA,NA,NA
"3171","pork","emperor",10,1,21,1,53,3.121,19,0.527777777777778,0,1,0,1.484,"",NA,NA,NA
"3171","calf","annoy",2,0,22,1,7,3.728,9,0.25,0,1,0,1.757,"",NA,NA,NA
"3171","bullet","walkway",11,1,23,1,90,6.549,5,0.138888888888889,0,1,0,1.729,"",NA,NA,NA
"3171","process","joker",10,1,24,1,47,3.438,33,0.916666666666667,1,1,1,1.189,"joker",1,NA,6.705
"3171","caring","skirt",1,0,25,1,4,4.137,27,0.75,1,1,1,1.851,"skirt",1,NA,7.032
"3171","biology","temper",2,0,26,1,35,3.849,8,0.222222222222222,0,1,0,1.311,"",NA,NA,NA
"3171","find","clown",2,0,27,1,40,5.273,3,0.0833333333333333,0,1,0,4.982,"",NA,NA,NA
"3171","port","cinema",2,0,28,1,53,2.517,23,0.638888888888889,1,1,1,1.393,"cinema",1,NA,5.735
"3171","capital","figure",3,0,29,1,19,3.608,7,0.194444444444444,0,1,0,1.6,"",NA,NA,NA
"3171","fee","chowder",3,0,30,1,52,3.958,11,0.305555555555556,0,1,0,1.42,"",NA,NA,NA
"3171","climax","saucer",11,1,31,1,50,7.329,17,0.472222222222222,0,1,0,3.936,"",NA,NA,NA
"3171","chicken","beet",1,0,32,1,15,5.161,14,0.388888888888889,0,1,0,1.178,"",NA,NA,NA
"3171","smother","surgery",3,0,33,1,7,3.786,35,0.972222222222222,1,1,1,1.455,"SKIP",0,NA,11.489
"3171","shrink","mafia",10,1,34,1,14,4.13,30,0.833333333333333,1,1,1,1.298,"mafia",1,NA,11.008
"3171","want","ascent",10,1,35,1,4,4.416,29,0.805555555555556,1,1,1,1.219,"ascent",1,NA,6.544
"3171","glue","force",11,1,36,1,53,3.939,4,0.111111111111111,0,1,0,2.164,"",NA,NA,NA
"3253","biology","temper",2,0,1,1,52,8.155,28,0.777777777777778,1,1,1,0.955,"temper",1,NA,6.31
"3253","grip","beach",12,1,2,1,49,2.68,35,0.972222222222222,0,1,0,0.754,"",NA,NA,NA
"3253","date","laugh",12,1,3,1,70,2.691,27,0.75,1,1,1,0.915,"laugh",1,NA,6.652
"3253","need","faucet",11,1,4,1,42,11.403,3,0.0833333333333333,0,1,0,2.08,"",NA,NA,NA
"3253","replace","roach",11,1,5,1,46,2.422,19,0.527777777777778,0,1,0,1.765,"",NA,NA,NA
"3253","bullet","walkway",11,1,6,1,56,2.383,26,0.722222222222222,1,1,1,0.738,"sidewalk",0,NA,7.573
"3253","rock","milk",10,1,7,1,75,6.769,2,0.0555555555555556,1,1,1,5.216,"milk",1,NA,3.405
"3253","capital","figure",3,0,8,1,68,2.011,13,0.361111111111111,1,1,1,0.818,"figure",1,NA,22.309
"3253","visit","glove",2,0,9,1,62,2.541,33,0.916666666666667,1,1,1,0.869,"glove",1,NA,4.161
"3253","glue","force",11,1,10,1,73,2.132,9,0.25,1,1,1,1.398,"force",1,NA,7.246
"3253","pork","emperor",10,1,11,1,27,3.482,25,0.694444444444444,0,1,0,0.758,"",NA,NA,NA
"3253","shrink","mafia",10,1,12,1,55,2.973,8,0.222222222222222,1,1,1,0.816,"glove",0,NA,6.843
"3253","mill","feast",12,1,13,1,55,4.198,32,0.888888888888889,1,1,1,2.113,"beach",0,NA,32.794
"3253","bacon","feud",3,0,14,1,28,1.786,15,0.416666666666667,0,1,0,1.183,"",NA,NA,NA
"3253","pea","bathtub",12,1,15,1,38,5.404,30,0.833333333333333,0,1,0,1.143,"",NA,NA,NA
"3253","prison","loaf",3,0,16,1,28,1.955,29,0.805555555555556,0,1,0,5.998,"",NA,NA,NA
"3253","climax","saucer",11,1,17,1,50,3.111,23,0.638888888888889,1,1,1,0.732,"saucer",1,NA,6.759
"3253","want","ascent",10,1,18,1,35,4.209,1,0.0277777777777778,1,1,1,-99,"ascent",1,NA,36.722
"3253","calf","annoy",2,0,19,1,32,2.283,34,0.944444444444444,0,1,0,1.261,"",NA,NA,NA
"3253","chicken","beet",1,0,20,1,51,2.655,14,0.388888888888889,0,1,0,1.052,"",NA,NA,NA
"3253","remind","foam",2,0,21,1,46,4.529,36,1,1,1,1,0.757,"roach",0,NA,16.44
"3253","process","joker",10,1,22,1,48,2.234,31,0.861111111111111,1,1,1,2.086,"joker",1,NA,19.21
"3253","link","crisis",12,1,23,1,61,4.559,4,0.111111111111111,1,1,1,2.832,"crises",0,NA,8.198
"3253","plant","worm",1,0,24,1,62,2.418,6,0.166666666666667,1,1,1,2.192,"worm",1,NA,45.981
"3253","fee","chowder",3,0,25,1,29,2.647,22,0.611111111111111,0,1,0,0.869,"",NA,NA,NA
"3253","caring","skirt",1,0,26,1,41,6.282,5,0.138888888888889,1,1,1,1.341,"skirt",1,NA,5.537
"3253","smother","surgery",3,0,27,1,63,2.749,21,0.583333333333333,1,1,1,1.099,"surgery",1,NA,6.249
"3253","find","clown",2,0,28,1,32,3.01,12,0.333333333333333,0,1,0,2.447,"",NA,NA,NA
"3253","anger","decay",1,0,29,1,42,3.896,24,0.666666666666667,0,1,0,1.027,"",NA,NA,NA
"3253","copy","bedroom",3,0,30,1,31,2.161,10,0.277777777777778,0,1,0,3.721,"",NA,NA,NA
"3253","bias","sirloin",1,0,31,1,53,2.732,11,0.305555555555556,0,1,0,0.679,"",NA,NA,NA
"3253","knock","otter",12,1,32,1,30,3.036,20,0.555555555555556,0,1,0,1.293,"",NA,NA,NA
"3253","bleach","ruin",10,1,33,1,63,1.893,17,0.472222222222222,1,1,1,0.794,"ruin",1,NA,6.13
"3253","port","cinema",2,0,34,1,34,2.53,7,0.194444444444444,0,1,0,1.001,"",NA,NA,NA
"3253","nerve","bumper",11,1,35,1,32,2.437,16,0.444444444444444,0,1,0,1.144,"",NA,NA,NA
"3253","fan","feature",1,0,36,1,43,2.263,18,0.5,0,1,0,2.098,"",NA,NA,NA
"3330","chicken","beet",1,0,1,1,8,10.073,2,0.0555555555555556,1,0,0,21.486,"beet",1,NA,14.588
"3330","grip","beach",12,1,2,1,41,6.404,5,0.138888888888889,1,0,0,0.996,"beach",1,NA,27.162
"3330","process","joker",10,1,3,1,61,7.51,14,0.388888888888889,1,0,0,2.296,"joker",1,NA,9.055
"3330","anger","decay",1,0,4,1,12,6.575,28,0.777777777777778,1,0,0,3.697,"decay",1,NA,10.382
"3330","shrink","mafia",10,1,5,1,100,5.957,10,0.277777777777778,0,0,1,3.593,"",NA,NA,NA
"3330","fan","feature",1,0,6,1,67,3.959,18,0.5,1,0,0,4.844,"feature",1,NA,9.925
"3330","find","clown",2,0,7,1,100,4.4,20,0.555555555555556,1,0,0,0.841,"clown",1,NA,6.363
"3330","date","laugh",12,1,8,1,100,2.357,30,0.833333333333333,0,0,1,0.921,"",NA,NA,NA
"3330","plant","worm",1,0,9,1,100,2.357,32,0.888888888888889,1,0,0,3.484,"worm",1,NA,7.701
"3330","knock","otter",12,1,10,1,55,8.939,6,0.166666666666667,0,0,1,1.856,"",NA,NA,NA
"3330","replace","roach",11,1,11,1,57,6.176,27,0.75,0,0,1,1.04,"",NA,NA,NA
"3330","glue","force",11,1,12,1,90,5.456,25,0.694444444444444,0,0,1,1.373,"",NA,NA,NA
"3330","link","crisis",12,1,13,1,100,14.303,1,0.0277777777777778,0,0,1,-99,"",NA,NA,NA
"3330","fee","chowder",3,0,14,1,6,7.943,7,0.194444444444444,1,0,0,1.279,"chowder",1,NA,8
"3330","mill","feast",12,1,15,1,76,4.742,29,0.805555555555556,0,0,1,1.512,"",NA,NA,NA
"3330","prison","loaf",3,0,16,1,18,6.441,9,0.25,1,0,0,1.457,"loaf",1,NA,7.998
"3330","nerve","bumper",11,1,17,1,57,10.025,31,0.861111111111111,1,0,0,1.569,"bumper",1,NA,27.431
"3330","bias","sirloin",1,0,18,1,26,6.605,16,0.444444444444444,1,0,0,3.126,"sirloin",1,NA,16.674
"3330","pea","bathtub",12,1,19,1,100,2.393,19,0.527777777777778,0,0,1,6.148,"",NA,NA,NA
"3330","visit","glove",2,0,20,1,11,9.845,21,0.583333333333333,1,0,0,7.107,"SKIP",0,NA,56.129
"3330","pork","emperor",10,1,21,1,100,5.757,26,0.722222222222222,0,0,1,1.291,"",NA,NA,NA
"3330","climax","saucer",11,1,22,1,65,15.128,35,0.972222222222222,0,0,1,1.32,"",NA,NA,NA
"3330","smother","surgery",3,0,23,1,20,8.378,36,1,0,0,1,1.127,"",NA,NA,NA
"3330","caring","skirt",1,0,24,1,11,11.029,17,0.472222222222222,1,0,0,1.139,"SKIP",0,NA,62.503
"3330","rock","milk",10,1,25,1,100,6.274,4,0.111111111111111,0,0,1,10.622,"",NA,NA,NA
"3330","calf","annoy",2,0,26,1,28,6.177,33,0.916666666666667,0,0,1,6.751,"",NA,NA,NA
"3330","copy","bedroom",3,0,27,1,100,3.686,11,0.305555555555556,0,0,1,6.213,"",NA,NA,NA
"3330","biology","temper",2,0,28,1,22,3.735,15,0.416666666666667,1,0,0,0.965,"temper",1,NA,10.319
"3330","port","cinema",2,0,29,1,24,4.131,8,0.222222222222222,1,0,0,7.782,"cinema",1,NA,13.631
"3330","remind","foam",2,0,30,1,16,9.689,34,0.944444444444444,0,0,1,1.806,"",NA,NA,NA
"3330","capital","figure",3,0,31,1,65,3.888,12,0.333333333333333,1,0,0,11.22,"figure",1,NA,14.926
"3330","bacon","feud",3,0,32,1,13,6.729,24,0.666666666666667,1,0,0,1,"feud",1,NA,10.192
"3330","bleach","ruin",10,1,33,1,100,2.196,22,0.611111111111111,0,0,1,1.829,"",NA,NA,NA
"3330","want","ascent",10,1,34,1,50,10.368,3,0.0833333333333333,1,0,0,6.272,"ascent",1,NA,12.847
"3330","need","faucet",11,1,35,1,100,2.709,13,0.361111111111111,0,0,1,8.741,"",NA,NA,NA
"3330","bullet","walkway",11,1,36,1,83,7.143,23,0.638888888888889,0,0,1,1.175,"",NA,NA,NA
"3487","grip","beach",12,1,1,1,74,2.1,28,0.777777777777778,1,1,1,4.99,"faucet",0,NA,8.329
"3487","prison","loaf",3,0,2,1,71,1.596,7,0.194444444444444,0,1,0,3.07,"",NA,NA,NA
"3487","bacon","feud",3,0,3,1,71,2.06,20,0.555555555555556,1,1,1,9.998,"feud",1,NA,6.595
"3487","need","faucet",11,1,4,1,68,1.388,36,1,1,1,1,1.006,"faucet",1,NA,7.463
"3487","process","joker",10,1,5,1,77,1.621,16,0.444444444444444,0,1,0,0.999,"",NA,NA,NA
"3487","fan","feature",1,0,6,1,79,1.996,18,0.5,0,1,0,0.952,"",NA,NA,NA
"3487","glue","force",11,1,7,1,75,1.587,30,0.833333333333333,1,1,1,0.958,"rubber",0,NA,6.157
"3487","bleach","ruin",10,1,8,1,77,2.413,9,0.25,0,1,0,1.583,"",NA,NA,NA
"3487","copy","bedroom",3,0,9,1,66,2.3,33,0.916666666666667,1,1,1,1.024,"paper",0,NA,4.389
"3487","biology","temper",2,0,10,1,95,2.124,23,0.638888888888889,1,1,1,5.446,"mafia",0,NA,14.775
"3487","find","clown",2,0,11,1,78,2.107,17,0.472222222222222,0,1,0,1.048,"",NA,NA,NA
"3487","port","cinema",2,0,12,1,81,1.852,15,0.416666666666667,0,1,0,0.935,"",NA,NA,NA
"3487","fee","chowder",3,0,13,1,79,1.604,6,0.166666666666667,0,1,0,0.981,"",NA,NA,NA
"3487","smother","surgery",3,0,14,1,68,3.54,10,0.277777777777778,0,1,0,0.95,"",NA,NA,NA
"3487","capital","figure",3,0,15,1,72,2.019,32,0.888888888888889,1,1,1,1.759,"crisis",0,NA,7.089
"3487","nerve","bumper",11,1,16,1,69,1.668,22,0.611111111111111,1,1,1,1.463,"bone",0,NA,4.799
"3487","replace","roach",11,1,17,1,60,1.623,25,0.694444444444444,1,1,1,0.919,"foam",0,NA,7.953
"3487","rock","milk",10,1,18,1,81,1.637,35,0.972222222222222,1,1,1,1.191,"worm",0,NA,7.895
"3487","caring","skirt",1,0,19,1,71,1.634,3,0.0833333333333333,0,1,0,1.742,"",NA,NA,NA
"3487","plant","worm",1,0,20,1,69,1.924,4,0.111111111111111,0,1,0,0.727,"",NA,NA,NA
"3487","date","laugh",12,1,21,1,66,1.381,11,0.305555555555556,0,1,0,1.127,"",NA,NA,NA
"3487","chicken","beet",1,0,22,1,69,1.732,21,0.583333333333333,1,1,1,1.287,"roast",0,NA,3.907
"3487","knock","otter",12,1,23,1,68,1.86,8,0.222222222222222,0,1,0,1.015,"",NA,NA,NA
"3487","bias","sirloin",1,0,24,1,83,2.171,27,0.75,1,1,1,0.966,"anger",0,NA,9.317
"3487","calf","annoy",2,0,25,1,69,1.619,26,0.722222222222222,1,1,1,0.927,"cow",0,NA,4.455
"3487","shrink","mafia",10,1,26,1,73,1.276,14,0.388888888888889,0,1,0,0.863,"",NA,NA,NA
"3487","want","ascent",10,1,27,1,76,2.235,34,0.944444444444444,1,1,1,1.007,"need",0,NA,6.413
"3487","climax","saucer",11,1,28,1,66,2.444,24,0.666666666666667,1,1,1,0.895,"core",0,NA,3.287
"3487","anger","decay",1,0,29,1,81,1.54,2,0.0555555555555556,0,1,0,3.281,"",NA,NA,NA
"3487","pork","emperor",10,1,30,1,78,1.732,12,0.333333333333333,0,1,0,0.975,"",NA,NA,NA
"3487","visit","glove",2,0,31,1,73,2.324,31,0.861111111111111,1,1,1,1.038,"city",0,NA,3.879
"3487","remind","foam",2,0,32,1,78,2.311,5,0.138888888888889,0,1,0,0.901,"",NA,NA,NA
"3487","link","crisis",12,1,33,1,71,3.508,29,0.805555555555556,1,1,1,0.967,"roach",0,NA,6.582
"3487","pea","bathtub",12,1,34,1,81,1.588,19,0.527777777777778,1,1,1,0.928,"pod",0,NA,3.255
"3487","bullet","walkway",11,1,35,1,73,2.217,1,0.0277777777777778,0,1,0,-99,"",NA,NA,NA
"3487","mill","feast",12,1,36,1,77,1.164,13,0.361111111111111,0,1,0,0.943,"",NA,NA,NA
"3515","knock","otter",12,1,1,1,50,2.276,4,0.111111111111111,1,1,1,0.975,"clown",0,NA,14.535
"3515","shrink","mafia",10,1,2,1,30,2.064,28,0.777777777777778,1,1,1,0.675,"mafia",1,NA,3.551
"3515","bacon","feud",3,0,3,1,50,3.405,12,0.333333333333333,1,1,1,0.721,"feud",1,NA,4.713
"3515","pork","emperor",10,1,4,1,50,3.658,34,0.944444444444444,0,1,0,0.621,"",NA,NA,NA
"3515","plant","worm",1,0,5,1,10,3.425,9,0.25,0,1,0,0.683,"",NA,NA,NA
"3515","prison","loaf",3,0,6,1,45,3.802,6,0.166666666666667,1,1,1,1.218,"loaf",1,NA,3.37
"3515","pea","bathtub",12,1,7,1,50,2.188,22,0.611111111111111,1,1,1,0.747,"bathtub",1,NA,9.627
"3515","grip","beach",12,1,8,1,50,2.629,35,0.972222222222222,0,1,0,0.666,"",NA,NA,NA
"3515","nerve","bumper",11,1,9,1,35,3.195,21,0.583333333333333,1,1,1,0.919,"capital",0,NA,19.531
"3515","biology","temper",2,0,10,1,20,4.242,15,0.416666666666667,0,1,0,0.786,"",NA,NA,NA
"3515","process","joker",10,1,11,1,55,2.478,27,0.75,1,1,1,0.653,"joker",1,NA,4.289
"3515","bullet","walkway",11,1,12,1,30,2.766,11,0.305555555555556,1,1,1,1.525,"finding",0,NA,10.374
"3515","smother","surgery",3,0,13,1,49,2.583,36,1,0,1,0,2.097,"",NA,NA,NA
"3515","fan","feature",1,0,14,1,9,4.249,20,0.555555555555556,0,1,0,0.627,"",NA,NA,NA
"3515","find","clown",2,0,15,1,50,2.804,3,0.0833333333333333,1,1,1,1.099,"clown",1,NA,4.699
"3515","climax","saucer",11,1,16,1,50,2.175,18,0.5,1,1,1,0.959,"saucer",1,NA,4.253
"3515","mill","feast",12,1,17,1,50,5.377,1,0.0277777777777778,1,1,1,-99,"feast",1,NA,2.857
"3515","fee","chowder",3,0,18,1,10,3.312,29,0.805555555555556,0,1,0,0.778,"",NA,NA,NA
"3515","link","crisis",12,1,19,1,40,2.985,13,0.361111111111111,1,1,1,0.753,"sausage",0,NA,5.689
"3515","want","ascent",10,1,20,1,45,2.633,8,0.222222222222222,1,1,1,0.752,"ascent",1,NA,4.944
"3515","visit","glove",2,0,21,1,1,1.598,24,0.666666666666667,0,1,0,0.739,"",NA,NA,NA
"3515","port","cinema",2,0,22,1,5,2.762,14,0.388888888888889,0,1,0,0.748,"",NA,NA,NA
"3515","calf","annoy",2,0,23,1,50,2.658,31,0.861111111111111,0,1,0,0.722,"",NA,NA,NA
"3515","date","laugh",12,1,24,1,50,2.27,23,0.638888888888889,1,1,1,0.769,"laugh",1,NA,4.639
"3515","anger","decay",1,0,25,1,7,3.157,2,0.0555555555555556,0,1,0,2.664,"",NA,NA,NA
"3515","rock","milk",10,1,26,1,46,2.525,16,0.444444444444444,1,1,1,0.754,"finger",0,NA,7.772
"3515","need","faucet",11,1,27,1,65,3.646,19,0.527777777777778,1,1,1,0.871,"want",0,NA,5.358
"3515","bias","sirloin",1,0,28,1,7,3.136,7,0.194444444444444,0,1,0,0.715,"",NA,NA,NA
"3515","bleach","ruin",10,1,29,1,55,2.99,26,0.722222222222222,1,1,1,0.683,"ruin",1,NA,4.534
"3515","chicken","beet",1,0,30,1,7,2.483,25,0.694444444444444,0,1,0,0.85,"",NA,NA,NA
"3515","capital","figure",3,0,31,1,45,2.214,5,0.138888888888889,1,1,1,0.824,"figure",1,NA,3.49
"3515","remind","foam",2,0,32,1,10,3.987,17,0.472222222222222,0,1,0,0.669,"",NA,NA,NA
"3515","replace","roach",11,1,33,1,50,2.33,33,0.916666666666667,0,1,0,0.66,"",NA,NA,NA
"3515","copy","bedroom",3,0,34,1,15,3.956,32,0.888888888888889,0,1,0,0.637,"",NA,NA,NA
"3515","glue","force",11,1,35,1,50,2.731,30,0.833333333333333,0,1,0,0.737,"",NA,NA,NA
"3515","caring","skirt",1,0,36,1,10,3.858,10,0.277777777777778,0,1,0,0.745,"",NA,NA,NA
"3678","link","crisis",12,1,1,1,23,2.463,9,0.25,0,0,1,1.179,"",NA,NA,NA
"3678","smother","surgery",3,0,2,1,67,1.932,14,0.388888888888889,0,0,1,1.769,"",NA,NA,NA
"3678","fee","chowder",3,0,3,1,23,1.792,30,0.833333333333333,1,0,0,1.281,"fee",0,NA,23.526
"3678","plant","worm",1,0,4,1,44,2.21,33,0.916666666666667,1,0,0,1.3,"worm",1,NA,4.416
"3678","prison","loaf",3,0,5,1,13,2.534,22,0.611111111111111,1,0,0,1.905,"loaf",1,NA,6.782
"3678","bacon","feud",3,0,6,1,21,2.775,25,0.694444444444444,1,0,0,1.362,"feud",1,NA,4.867
"3678","bias","sirloin",1,0,7,1,23,2.593,21,0.583333333333333,1,0,0,1.274,"sirloin",1,NA,6.046
"3678","process","joker",10,1,8,1,19,2.663,23,0.638888888888889,1,0,0,1.272,"feature",0,NA,14.106
"3678","bullet","walkway",11,1,9,1,78,2.217,12,0.333333333333333,0,0,1,2.268,"",NA,NA,NA
"3678","port","cinema",2,0,10,1,53,2.51,26,0.722222222222222,1,0,0,1.491,"cinema",1,NA,4.985
"3678","bleach","ruin",10,1,11,1,80,2.564,10,0.277777777777778,0,0,1,0.97,"",NA,NA,NA
"3678","remind","foam",2,0,12,1,18,1.767,4,0.111111111111111,0,0,1,1.175,"",NA,NA,NA
