"subn","word1","word2","points","value","trial","list","jol","jolrt","jolrank","jolrankp","practice","honor","choice","choicert"
"1018","bleach","ruin",10,1,1,1,1,5.801,NA,NA,0,0,-99,-99
"1018","shrink","mafia",10,1,2,1,1,3.472,NA,NA,0,0,-99,-99
"1018","pea","bathtub",12,1,3,1,23,3.256,NA,NA,1,0,-99,-99
"1018","fee","chowder",3,0,4,1,1,6.111,NA,NA,1,0,-99,-99
"1018","port","cinema",2,0,5,1,1,2.552,NA,NA,1,0,-99,-99
"1018","link","crisis",12,1,6,1,69,3.138,NA,NA,0,0,-99,-99
"1018","biology","temper",2,0,7,1,62,2.7,NA,NA,1,0,-99,-99
"1018","smother","surgery",3,0,8,1,1,2.812,NA,NA,1,0,-99,-99
"1018","date","laugh",12,1,9,1,75,2.902,NA,NA,0,0,-99,-99
"1018","anger","decay",1,0,10,1,1,2.661,NA,NA,1,0,-99,-99
"1018","pork","emperor",10,1,11,1,1,2.674,NA,NA,0,0,-99,-99
"1018","capital","figure",3,0,12,1,1,2.828,NA,NA,1,0,-99,-99
"1018","bacon","feud",3,0,13,1,1,2.318,NA,NA,1,0,-99,-99
"1018","grip","beach",12,1,14,1,72,2.656,NA,NA,1,0,-99,-99
"1018","remind","foam",2,0,15,1,1,2.438,NA,NA,1,0,-99,-99
"1018","visit","glove",2,0,16,1,1,2.897,NA,NA,1,0,-99,-99
"1018","replace","roach",11,1,17,1,74,3.19,NA,NA,1,0,-99,-99
"1018","caring","skirt",1,0,18,1,1,2.166,NA,NA,1,0,-99,-99
"1018","bullet","walkway",11,1,19,1,74,3.96,NA,NA,0,0,-99,-99
"1018","want","ascent",10,1,20,1,22,3.842,NA,NA,1,0,-99,-99
"1018","fan","feature",1,0,21,1,58,2.161,NA,NA,0,0,-99,-99
"1018","calf","annoy",2,0,22,1,1,2.456,NA,NA,0,0,-99,-99
"1018","rock","milk",10,1,23,1,77,3.006,NA,NA,0,0,-99,-99
"1018","nerve","bumper",11,1,24,1,70,3.771,NA,NA,1,0,-99,-99
"1018","glue","force",11,1,25,1,65,3.042,NA,NA,0,0,-99,-99
"1018","knock","otter",12,1,26,1,73,3.777,NA,NA,0,0,-99,-99
"1018","copy","bedroom",3,0,27,1,1,2.349,NA,NA,0,0,-99,-99
"1018","chicken","beet",1,0,28,1,64,2.356,NA,NA,0,0,-99,-99
"1018","process","joker",10,1,29,1,29,3.116,NA,NA,0,0,-99,-99
"1018","mill","feast",12,1,30,1,27,2.981,NA,NA,0,0,-99,-99
"1018","plant","worm",1,0,31,1,78,2.861,NA,NA,0,0,-99,-99
"1018","climax","saucer",11,1,32,1,12,2.667,NA,NA,1,0,-99,-99
"1018","need","faucet",11,1,33,1,1,2.176,NA,NA,0,0,-99,-99
"1018","prison","loaf",3,0,34,1,8,2.598,NA,NA,0,0,-99,-99
"1018","find","clown",2,0,35,1,1,2.06,NA,NA,1,0,-99,-99
"1018","bias","sirloin",1,0,36,1,1,1.797,NA,NA,1,0,-99,-99
"1018","caring","skirt",1,0,1,2,1,4.276,NA,NA,1,0,-99,-99
"1018","remind","foam",2,0,2,2,1,1.927,NA,NA,1,0,-99,-99
"1018","pea","bathtub",12,1,3,2,20,4.987,NA,NA,1,0,-99,-99
"1018","rock","milk",10,1,4,2,26,2.589,NA,NA,0,0,-99,-99
"1018","bacon","feud",3,0,5,2,1,2.072,NA,NA,1,0,-99,-99
"1018","chicken","beet",1,0,6,2,64,1.959,NA,NA,0,0,-99,-99
"1018","grip","beach",12,1,7,2,75,1.917,NA,NA,1,0,-99,-99
"1018","fan","feature",1,0,8,2,89,2.368,NA,NA,0,0,-99,-99
"1018","need","faucet",11,1,9,2,21,1.879,NA,NA,0,0,-99,-99
"1018","calf","annoy",2,0,10,2,2,1.974,NA,NA,0,0,-99,-99
"1018","visit","glove",2,0,11,2,1,1.798,NA,NA,1,0,-99,-99
"1018","want","ascent",10,1,12,2,11,1.988,NA,NA,1,0,-99,-99
"1018","knock","otter",12,1,13,2,78,1.869,NA,NA,0,0,-99,-99
"1018","mill","feast",12,1,14,2,29,2.217,NA,NA,0,0,-99,-99
"1018","climax","saucer",11,1,15,2,69,1.743,NA,NA,1,0,-99,-99
"1018","bleach","ruin",10,1,16,2,70,1.889,NA,NA,0,0,-99,-99
"1018","plant","worm",1,0,17,2,91,1.622,NA,NA,0,0,-99,-99
"1018","anger","decay",1,0,18,2,1,1.645,NA,NA,1,0,-99,-99
"1018","biology","temper",2,0,19,2,6,1.719,NA,NA,1,0,-99,-99
"1018","pork","emperor",10,1,20,2,26,1.787,NA,NA,0,0,-99,-99
"1018","capital","figure",3,0,21,2,18,2.111,NA,NA,1,0,-99,-99
"1018","prison","loaf",3,0,22,2,61,1.595,NA,NA,0,0,-99,-99
"1018","find","clown",2,0,23,2,1,2.472,NA,NA,1,0,-99,-99
"1018","bullet","walkway",11,1,24,2,25,1.932,NA,NA,0,0,-99,-99
"1018","fee","chowder",3,0,25,2,1,2.122,NA,NA,1,0,-99,-99
"1018","date","laugh",12,1,26,2,66,1.701,NA,NA,0,0,-99,-99
"1018","glue","force",11,1,27,2,58,1.804,NA,NA,0,0,-99,-99
"1018","shrink","mafia",10,1,28,2,64,1.73,NA,NA,0,0,-99,-99
"1018","link","crisis",12,1,29,2,79,1.615,NA,NA,0,0,-99,-99
"1018","smother","surgery",3,0,30,2,21,1.565,NA,NA,1,0,-99,-99
"1018","replace","roach",11,1,31,2,79,1.954,NA,NA,1,0,-99,-99
"1018","copy","bedroom",3,0,32,2,1,2.068,NA,NA,0,0,-99,-99
"1018","nerve","bumper",11,1,33,2,20,1.821,NA,NA,1,0,-99,-99
"1018","port","cinema",2,0,34,2,3,1.616,NA,NA,1,0,-99,-99
"1018","process","joker",10,1,35,2,6,2.201,NA,NA,0,0,-99,-99
"1018","bias","sirloin",1,0,36,2,1,1.552,NA,NA,1,0,-99,-99
"1018","copy","bedroom",3,0,1,3,1,3.808,1,0.0277777777777778,0,0,1,-99
"1018","bleach","ruin",10,1,2,3,67,2.887,2,0.0555555555555556,0,0,1,3.886
"1018","find","clown",2,0,3,3,1,2.03,3,0.0833333333333333,1,0,0,3.514
"1018","remind","foam",2,0,4,3,1,2.987,4,0.111111111111111,1,0,0,7.37
"1018","glue","force",11,1,5,3,74,1.639,5,0.138888888888889,0,0,1,2.859
"1018","bullet","walkway",11,1,6,3,63,2.661,6,0.166666666666667,0,0,1,1.021
"1018","process","joker",10,1,7,3,73,1.863,7,0.194444444444444,0,0,1,0.996
"1018","fan","feature",1,0,8,3,83,1.667,8,0.222222222222222,0,0,1,1.191
"1018","nerve","bumper",11,1,9,3,26,1.471,9,0.25,1,0,0,0.957
"1018","grip","beach",12,1,10,3,27,1.918,10,0.277777777777778,1,0,0,1.04
"1018","calf","annoy",2,0,11,3,71,1.512,11,0.305555555555556,0,0,1,0.987
"1018","link","crisis",12,1,12,3,75,2.713,12,0.333333333333333,0,0,1,0.896
"1018","chicken","beet",1,0,13,3,65,1.664,13,0.361111111111111,0,0,1,1.281
"1018","caring","skirt",1,0,14,3,14,1.666,14,0.388888888888889,1,0,0,1.005
"1018","bias","sirloin",1,0,15,3,11,2.288,15,0.416666666666667,1,0,0,0.989
"1018","biology","temper",2,0,16,3,12,2.204,16,0.444444444444444,1,0,0,1.095
"1018","need","faucet",11,1,17,3,75,1.711,17,0.472222222222222,0,0,1,1.001
"1018","anger","decay",1,0,18,3,21,1.717,18,0.5,1,0,0,1.751
"1018","pork","emperor",10,1,19,3,79,1.453,19,0.527777777777778,0,0,1,1.226
"1018","smother","surgery",3,0,20,3,20,2.03,20,0.555555555555556,1,0,0,1.323
"1018","pea","bathtub",12,1,21,3,24,2.415,21,0.583333333333333,1,0,0,1.177
"1018","port","cinema",2,0,22,3,23,2.397,22,0.611111111111111,1,0,0,0.848
"1018","plant","worm",1,0,23,3,86,1.733,23,0.638888888888889,0,0,1,2.189
"1018","visit","glove",2,0,24,3,24,2.012,24,0.666666666666667,1,0,0,1.225
"1018","rock","milk",10,1,25,3,71,2.086,25,0.694444444444444,0,0,1,0.85
"1018","date","laugh",12,1,26,3,75,1.878,26,0.722222222222222,0,0,1,0.824
"1018","mill","feast",12,1,27,3,68,1.804,27,0.75,0,0,1,1.046
"1018","prison","loaf",3,0,28,3,65,1.499,28,0.777777777777778,0,0,1,1.54
"1018","capital","figure",3,0,29,3,25,1.961,29,0.805555555555556,1,0,0,1.661
"1018","shrink","mafia",10,1,30,3,74,1.573,30,0.833333333333333,0,0,1,1.105
"1018","knock","otter",12,1,31,3,76,1.539,31,0.861111111111111,0,0,1,1.508
"1018","want","ascent",10,1,32,3,19,1.661,32,0.888888888888889,1,0,0,0.998
"1018","bacon","feud",3,0,33,3,24,1.489,33,0.916666666666667,1,0,0,0.89
"1018","climax","saucer",11,1,34,3,15,1.994,34,0.944444444444444,1,0,0,1.505
"1018","fee","chowder",3,0,35,3,25,1.736,35,0.972222222222222,1,0,0,0.815
"1018","replace","roach",11,1,36,3,74,2.15,36,1,1,0,0,0.981
"1155","glue","force",11,1,1,1,93,4.141,NA,NA,0,1,-99,-99
"1155","pea","bathtub",12,1,2,1,89,14.333,NA,NA,1,1,-99,-99
"1155","plant","worm",1,0,3,1,100,6.955,NA,NA,0,1,-99,-99
"1155","visit","glove",2,0,4,1,68,4.914,NA,NA,1,1,-99,-99
"1155","prison","loaf",3,0,5,1,74,5.818,NA,NA,1,1,-99,-99
"1155","mill","feast",12,1,6,1,73,5.369,NA,NA,0,1,-99,-99
"1155","anger","decay",1,0,7,1,100,5.233,NA,NA,1,1,-99,-99
"1155","fee","chowder",3,0,8,1,60,4.732,NA,NA,0,1,-99,-99
"1155","find","clown",2,0,9,1,68,4.907,NA,NA,0,1,-99,-99
"1155","port","cinema",2,0,10,1,62,5.083,NA,NA,0,1,-99,-99
"1155","chicken","beet",1,0,11,1,84,6.387,NA,NA,1,1,-99,-99
"1155","copy","bedroom",3,0,12,1,43,7.41,NA,NA,0,1,-99,-99
"1155","nerve","bumper",11,1,13,1,32,5.53,NA,NA,1,1,-99,-99
"1155","bullet","walkway",11,1,14,1,59,7.739,NA,NA,1,1,-99,-99
"1155","grip","beach",12,1,15,1,62,8.37,NA,NA,1,1,-99,-99
"1155","remind","foam",2,0,16,1,39,6.011,NA,NA,0,1,-99,-99
"1155","bleach","ruin",10,1,17,1,60,11.436,NA,NA,1,1,-99,-99
"1155","link","crisis",12,1,18,1,70,11.755,NA,NA,0,1,-99,-99
"1155","biology","temper",2,0,19,1,63,7.771,NA,NA,0,1,-99,-99
"1155","fan","feature",1,0,20,1,62,5.29,NA,NA,1,1,-99,-99
"1155","replace","roach",11,1,21,1,62,3.906,NA,NA,0,1,-99,-99
"1155","bacon","feud",3,0,22,1,37,14.395,NA,NA,1,1,-99,-99
"1155","caring","skirt",1,0,23,1,43,3.473,NA,NA,1,1,-99,-99
"1155","smother","surgery",3,0,24,1,40,2.275,NA,NA,1,1,-99,-99
"1155","climax","saucer",11,1,25,1,36,2.5,NA,NA,0,1,-99,-99
"1155","rock","milk",10,1,26,1,43,6.051,NA,NA,1,1,-99,-99
"1155","calf","annoy",2,0,27,1,27,7.508,NA,NA,0,1,-99,-99
"1155","process","joker",10,1,28,1,35,9.122,NA,NA,0,1,-99,-99
"1155","need","faucet",11,1,29,1,68,5.529,NA,NA,1,1,-99,-99
"1155","knock","otter",12,1,30,1,31,7.371,NA,NA,1,1,-99,-99
"1155","bias","sirloin",1,0,31,1,34,6.122,NA,NA,0,1,-99,-99
"1155","shrink","mafia",10,1,32,1,33,7.011,NA,NA,1,1,-99,-99
"1155","want","ascent",10,1,33,1,23,3.85,NA,NA,1,1,-99,-99
"1155","capital","figure",3,0,34,1,29,3.49,NA,NA,0,1,-99,-99
"1155","date","laugh",12,1,35,1,43,7.707,NA,NA,0,1,-99,-99
"1155","pork","emperor",10,1,36,1,72,2.953,NA,NA,0,1,-99,-99
"1155","replace","roach",11,1,1,2,84,28.403,NA,NA,0,1,-99,-99
"1155","pea","bathtub",12,1,2,2,61,4.763,NA,NA,1,1,-99,-99
"1155","fee","chowder",3,0,3,2,69,5.996,NA,NA,0,1,-99,-99
"1155","mill","feast",12,1,4,2,42,9.108,NA,NA,0,1,-99,-99
"1155","glue","force",11,1,5,2,70,4.306,NA,NA,0,1,-99,-99
"1155","process","joker",10,1,6,2,75,3.675,NA,NA,0,1,-99,-99
"1155","biology","temper",2,0,7,2,64,3.458,NA,NA,0,1,-99,-99
"1155","date","laugh",12,1,8,2,74,2.851,NA,NA,0,1,-99,-99
"1155","climax","saucer",11,1,9,2,88,4.13,NA,NA,0,1,-99,-99
"1155","rock","milk",10,1,10,2,69,5.18,NA,NA,1,1,-99,-99
"1155","link","crisis",12,1,11,2,85,2.448,NA,NA,0,1,-99,-99
"1155","fan","feature",1,0,12,2,76,5.578,NA,NA,1,1,-99,-99
"1155","nerve","bumper",11,1,13,2,76,7.93,NA,NA,1,1,-99,-99
"1155","need","faucet",11,1,14,2,76,3.619,NA,NA,1,1,-99,-99
"1155","visit","glove",2,0,15,2,89,3.05,NA,NA,1,1,-99,-99
"1155","bacon","feud",3,0,16,2,77,20.172,NA,NA,1,1,-99,-99
"1155","caring","skirt",1,0,17,2,72,3.514,NA,NA,1,1,-99,-99
"1155","knock","otter",12,1,18,2,41,2.339,NA,NA,1,1,-99,-99
"1155","find","clown",2,0,19,2,68,8.635,NA,NA,0,1,-99,-99
"1155","pork","emperor",10,1,20,2,67,3.011,NA,NA,0,1,-99,-99
"1155","plant","worm",1,0,21,2,41,7.049,NA,NA,0,1,-99,-99
"1155","calf","annoy",2,0,22,2,58,9.547,NA,NA,0,1,-99,-99
"1155","shrink","mafia",10,1,23,2,41,7.58,NA,NA,1,1,-99,-99
"1155","smother","surgery",3,0,24,2,60,10.603,NA,NA,1,1,-99,-99
"1155","prison","loaf",3,0,25,2,66,8.38,NA,NA,1,1,-99,-99
"1155","want","ascent",10,1,26,2,72,7.131,NA,NA,1,1,-99,-99
"1155","remind","foam",2,0,27,2,43,2.061,NA,NA,0,1,-99,-99
"1155","capital","figure",3,0,28,2,42,1.555,NA,NA,0,1,-99,-99
"1155","chicken","beet",1,0,29,2,85,1.719,NA,NA,1,1,-99,-99
"1155","bias","sirloin",1,0,30,2,35,2.231,NA,NA,0,1,-99,-99
"1155","bullet","walkway",11,1,31,2,71,7.704,NA,NA,1,1,-99,-99
"1155","grip","beach",12,1,32,2,35,13.027,NA,NA,1,1,-99,-99
"1155","anger","decay",1,0,33,2,99,2.312,NA,NA,1,1,-99,-99
"1155","port","cinema",2,0,34,2,34,3.435,NA,NA,0,1,-99,-99
"1155","bleach","ruin",10,1,35,2,29,3.419,NA,NA,1,1,-99,-99
"1155","copy","bedroom",3,0,36,2,35,6.05,NA,NA,0,1,-99,-99
"1155","grip","beach",12,1,1,3,67,5.689,1,0.0277777777777778,1,1,1,-99
"1155","want","ascent",10,1,2,3,66,2.994,2,0.0555555555555556,1,1,1,3.702
"1155","biology","temper",2,0,3,3,32,8.009,3,0.0833333333333333,0,1,0,6.367
"1155","bacon","feud",3,0,4,3,33,5.042,4,0.111111111111111,1,1,1,6.871
"1155","pea","bathtub",12,1,5,3,68,1.973,5,0.138888888888889,1,1,1,10.019
"1155","knock","otter",12,1,6,3,80,6.642,6,0.166666666666667,1,1,1,1.181
"1155","bullet","walkway",11,1,7,3,83,2.282,7,0.194444444444444,1,1,1,0.702
"1155","nerve","bumper",11,1,8,3,76,7.002,8,0.222222222222222,1,1,1,0.958
"1155","find","clown",2,0,9,3,62,2.915,9,0.25,0,1,0,1.095
"1155","fan","feature",1,0,10,3,77,6.571,10,0.277777777777778,1,1,1,0.951
"1155","visit","glove",2,0,11,3,60,2.033,11,0.305555555555556,1,1,1,1.086
"1155","chicken","beet",1,0,12,3,96,3.778,12,0.333333333333333,1,1,1,0.983
"1155","rock","milk",10,1,13,3,74,5.659,13,0.361111111111111,1,1,1,1.278
"1155","caring","skirt",1,0,14,3,27,2.41,14,0.388888888888889,1,1,1,0.919
"1155","shrink","mafia",10,1,15,3,74,2.073,15,0.416666666666667,1,1,1,1.622
"1155","fee","chowder",3,0,16,3,62,1.586,16,0.444444444444444,0,1,0,1.215
"1155","replace","roach",11,1,17,3,35,1.874,17,0.472222222222222,0,1,0,1.55
"1155","prison","loaf",3,0,18,3,91,1.745,18,0.5,1,1,1,0.845
"1155","anger","decay",1,0,19,3,96,2.339,19,0.527777777777778,1,1,1,0.727
"1155","need","faucet",11,1,20,3,85,13.178,20,0.555555555555556,1,1,1,0.83
"1155","bleach","ruin",10,1,21,3,83,2.842,21,0.583333333333333,1,1,1,1.55
"1155","smother","surgery",3,0,22,3,72,2.282,22,0.611111111111111,1,1,1,7.862
"1155","pork","emperor",10,1,23,3,76,3.091,23,0.638888888888889,0,1,0,2.23
"1155","process","joker",10,1,24,3,27,1.928,24,0.666666666666667,0,1,0,1.014
"1155","copy","bedroom",3,0,25,3,71,2.042,25,0.694444444444444,0,1,0,0.655
"1155","glue","force",11,1,26,3,88,2.574,26,0.722222222222222,0,1,0,1.326
"1155","mill","feast",12,1,27,3,39,1.995,27,0.75,0,1,0,1.124
"1155","calf","annoy",2,0,28,3,70,2.459,28,0.777777777777778,0,1,0,0.622
"1155","remind","foam",2,0,29,3,68,1.955,29,0.805555555555556,0,1,0,0.654
"1155","port","cinema",2,0,30,3,59,2.115,30,0.833333333333333,0,1,0,1.687
"1155","link","crisis",12,1,31,3,25,3.115,31,0.861111111111111,0,1,0,0.935
"1155","date","laugh",12,1,32,3,84,1.85,32,0.888888888888889,0,1,0,0.991
"1155","climax","saucer",11,1,33,3,36,2.355,33,0.916666666666667,0,1,0,0.703
"1155","capital","figure",3,0,34,3,37,16.723,34,0.944444444444444,0,1,0,0.807
"1155","bias","sirloin",1,0,35,3,70,3.403,35,0.972222222222222,0,1,0,0.791
"1155","plant","worm",1,0,36,3,67,1.384,36,1,0,1,0,4.045
"1242","pork","emperor",10,1,1,1,89,18.766,NA,NA,1,0,-99,-99
"1242","calf","annoy",2,0,2,1,57,3.72,NA,NA,0,0,-99,-99
"1242","chicken","beet",1,0,3,1,83,3.751,NA,NA,1,0,-99,-99
"1242","mill","feast",12,1,4,1,91,5.858,NA,NA,0,0,-99,-99
"1242","capital","figure",3,0,5,1,75,6.393,NA,NA,0,0,-99,-99
"1242","find","clown",2,0,6,1,100,2.655,NA,NA,0,0,-99,-99
"1242","anger","decay",1,0,7,1,100,4.482,NA,NA,0,0,-99,-99
"1242","fee","chowder",3,0,8,1,26,2.948,NA,NA,1,0,-99,-99
"1242","prison","loaf",3,0,9,1,50,7.69,NA,NA,1,0,-99,-99
"1242","need","faucet",11,1,10,1,100,3.503,NA,NA,0,0,-99,-99
"1242","shrink","mafia",10,1,11,1,100,7.361,NA,NA,0,0,-99,-99
"1242","bullet","walkway",11,1,12,1,100,4.163,NA,NA,1,0,-99,-99
"1242","knock","otter",12,1,13,1,62,3.68,NA,NA,0,0,-99,-99
"1242","date","laugh",12,1,14,1,82,4.018,NA,NA,0,0,-99,-99
"1242","climax","saucer",11,1,15,1,80,4.005,NA,NA,1,0,-99,-99
"1242","caring","skirt",1,0,16,1,1,2.804,NA,NA,1,0,-99,-99
"1242","bacon","feud",3,0,17,1,65,3.57,NA,NA,0,0,-99,-99
"1242","bleach","ruin",10,1,18,1,100,2.514,NA,NA,0,0,-99,-99
"1242","remind","foam",2,0,19,1,28,3.437,NA,NA,0,0,-99,-99
"1242","rock","milk",10,1,20,1,63,2.721,NA,NA,1,0,-99,-99
"1242","process","joker",10,1,21,1,53,2.875,NA,NA,1,0,-99,-99
"1242","grip","beach",12,1,22,1,62,3.924,NA,NA,1,0,-99,-99
"1242","biology","temper",2,0,23,1,64,3.998,NA,NA,1,0,-99,-99
"1242","glue","force",11,1,24,1,100,2.752,NA,NA,0,0,-99,-99
"1242","nerve","bumper",11,1,25,1,62,2.966,NA,NA,0,0,-99,-99
"1242","fan","feature",1,0,26,1,35,2.698,NA,NA,0,0,-99,-99
"1242","smother","surgery",3,0,27,1,62,2.453,NA,NA,1,0,-99,-99
"1242","bias","sirloin",1,0,28,1,26,2.315,NA,NA,1,0,-99,-99
"1242","replace","roach",11,1,29,1,61,2.247,NA,NA,1,0,-99,-99
"1242","port","cinema",2,0,30,1,35,6.419,NA,NA,0,0,-99,-99
"1242","pea","bathtub",12,1,31,1,100,2.753,NA,NA,0,0,-99,-99
"1242","copy","bedroom",3,0,32,1,89,2.589,NA,NA,1,0,-99,-99
"1242","visit","glove",2,0,33,1,25,3.193,NA,NA,1,0,-99,-99
"1242","plant","worm",1,0,34,1,100,3.417,NA,NA,0,0,-99,-99
"1242","want","ascent",10,1,35,1,40,2.607,NA,NA,1,0,-99,-99
"1242","link","crisis",12,1,36,1,39,2.455,NA,NA,1,0,-99,-99
"1242","copy","bedroom",3,0,1,2,73,4.758,NA,NA,1,0,-99,-99
"1242","remind","foam",2,0,2,2,35,2.741,NA,NA,0,0,-99,-99
"1242","pork","emperor",10,1,3,2,100,2.302,NA,NA,1,0,-99,-99
"1242","anger","decay",1,0,4,2,100,2.336,NA,NA,0,0,-99,-99
"1242","prison","loaf",3,0,5,2,41,2.457,NA,NA,1,0,-99,-99
"1242","capital","figure",3,0,6,2,71,2.211,NA,NA,0,0,-99,-99
"1242","port","cinema",2,0,7,2,22,2.277,NA,NA,0,0,-99,-99
"1242","process","joker",10,1,8,2,61,2.081,NA,NA,1,0,-99,-99
"1242","grip","beach",12,1,9,2,34,2.265,NA,NA,1,0,-99,-99
"1242","date","laugh",12,1,10,2,100,2.337,NA,NA,0,0,-99,-99
"1242","biology","temper",2,0,11,2,100,2.397,NA,NA,1,0,-99,-99
"1242","mill","feast",12,1,12,2,98,2.913,NA,NA,0,0,-99,-99
"1242","pea","bathtub",12,1,13,2,100,2.335,NA,NA,0,0,-99,-99
"1242","replace","roach",11,1,14,2,34,2.115,NA,NA,1,0,-99,-99
"1242","fan","feature",1,0,15,2,17,2.526,NA,NA,0,0,-99,-99
"1242","need","faucet",11,1,16,2,100,2.493,NA,NA,0,0,-99,-99
"1242","knock","otter",12,1,17,2,33,2.4,NA,NA,0,0,-99,-99
"1242","plant","worm",1,0,18,2,100,3.027,NA,NA,0,0,-99,-99
"1242","chicken","beet",1,0,19,2,100,2.348,NA,NA,1,0,-99,-99
"1242","fee","chowder",3,0,20,2,27,1.835,NA,NA,1,0,-99,-99
"1242","find","clown",2,0,21,2,100,2.241,NA,NA,0,0,-99,-99
"1242","glue","force",11,1,22,2,90,2.263,NA,NA,0,0,-99,-99
"1242","shrink","mafia",10,1,23,2,100,2.522,NA,NA,0,0,-99,-99
"1242","want","ascent",10,1,24,2,49,2.278,NA,NA,1,0,-99,-99
"1242","bias","sirloin",1,0,25,2,1,2.233,NA,NA,1,0,-99,-99
"1242","bleach","ruin",10,1,26,2,100,2.284,NA,NA,0,0,-99,-99
"1242","link","crisis",12,1,27,2,85,3.514,NA,NA,1,0,-99,-99
"1242","visit","glove",2,0,28,2,1,2.36,NA,NA,1,0,-99,-99
"1242","calf","annoy",2,0,29,2,30,2.178,NA,NA,0,0,-99,-99
"1242","bacon","feud",3,0,30,2,71,2.307,NA,NA,0,0,-99,-99
"1242","caring","skirt",1,0,31,2,1,2.288,NA,NA,1,0,-99,-99
"1242","climax","saucer",11,1,32,2,60,2.562,NA,NA,1,0,-99,-99
"1242","bullet","walkway",11,1,33,2,83,2.218,NA,NA,1,0,-99,-99
"1242","nerve","bumper",11,1,34,2,80,2.064,NA,NA,0,0,-99,-99
"1242","smother","surgery",3,0,35,2,100,2.173,NA,NA,1,0,-99,-99
"1242","rock","milk",10,1,36,2,69,2.11,NA,NA,1,0,-99,-99
"1242","port","cinema",2,0,1,3,10,4.127,1,0.0277777777777778,0,0,1,-99
"1242","plant","worm",1,0,2,3,100,2.465,2,0.0555555555555556,0,0,1,7.13
"1242","want","ascent",10,1,3,3,57,2.853,3,0.0833333333333333,1,0,0,1.929
"1242","mill","feast",12,1,4,3,100,2.83,4,0.111111111111111,0,0,1,1.185
"1242","remind","foam",2,0,5,3,23,2.308,5,0.138888888888889,0,0,1,1.022
"1242","anger","decay",1,0,6,3,100,2.071,6,0.166666666666667,0,0,1,1.608
"1242","calf","annoy",2,0,7,3,35,2.57,7,0.194444444444444,0,0,1,1.167
"1242","find","clown",2,0,8,3,100,3.102,8,0.222222222222222,0,0,1,1.03
"1242","shrink","mafia",10,1,9,3,100,2.76,9,0.25,0,0,1,1.079
"1242","prison","loaf",3,0,10,3,42,2.631,10,0.277777777777778,1,0,0,1.287
"1242","capital","figure",3,0,11,3,67,2.727,11,0.305555555555556,0,0,1,3.392
"1242","nerve","bumper",11,1,12,3,69,6.677,12,0.333333333333333,0,0,1,1.047
"1242","fan","feature",1,0,13,3,74,2.245,13,0.361111111111111,0,0,1,1.064
"1242","need","faucet",11,1,14,3,69,3.073,14,0.388888888888889,0,0,1,0.919
"1242","date","laugh",12,1,15,3,78,2.51,15,0.416666666666667,0,0,1,1.19
"1242","fee","chowder",3,0,16,3,33,2.311,16,0.444444444444444,1,0,0,1.108
"1242","bleach","ruin",10,1,17,3,91,2.411,17,0.472222222222222,0,0,1,1.075
"1242","climax","saucer",11,1,18,3,37,1.907,18,0.5,1,0,0,1
"1242","glue","force",11,1,19,3,82,2.7,19,0.527777777777778,0,0,1,0.779
"1242","pea","bathtub",12,1,20,3,92,2.379,20,0.555555555555556,0,0,1,0.975
"1242","bullet","walkway",11,1,21,3,32,2.072,21,0.583333333333333,1,0,0,0.89
"1242","process","joker",10,1,22,3,39,4.1,22,0.611111111111111,1,0,0,1.034
"1242","bacon","feud",3,0,23,3,86,3.905,23,0.638888888888889,0,0,1,0.89
"1242","knock","otter",12,1,24,3,81,2.511,24,0.666666666666667,0,0,1,0.91
"1242","link","crisis",12,1,25,3,31,2.781,25,0.694444444444444,1,0,0,1.161
"1242","bias","sirloin",1,0,26,3,25,2.262,26,0.722222222222222,1,0,0,0.879
"1242","chicken","beet",1,0,27,3,100,2.254,27,0.75,1,0,0,1.018
"1242","grip","beach",12,1,28,3,52,3.363,28,0.777777777777778,1,0,0,5.876
"1242","biology","temper",2,0,29,3,49,3.356,29,0.805555555555556,1,0,0,1.175
"1242","caring","skirt",1,0,30,3,23,2.186,30,0.833333333333333,1,0,0,0.862
"1242","visit","glove",2,0,31,3,34,2.018,31,0.861111111111111,1,0,0,1.125
"1242","copy","bedroom",3,0,32,3,63,2.186,32,0.888888888888889,1,0,0,0.75
"1242","rock","milk",10,1,33,3,85,2.09,33,0.916666666666667,1,0,0,3.469
"1242","replace","roach",11,1,34,3,69,1.849,34,0.944444444444444,1,0,0,0.746
"1242","smother","surgery",3,0,35,3,84,2.53,35,0.972222222222222,1,0,0,1.111
"1242","pork","emperor",10,1,36,3,100,2.406,36,1,1,0,0,1.109
"1282","port","cinema",2,0,1,1,76,7.024,NA,NA,1,0,-99,-99
"1282","bullet","walkway",11,1,2,1,32,3.944,NA,NA,0,0,-99,-99
"1282","link","crisis",12,1,3,1,66,3.416,NA,NA,0,0,-99,-99
"1282","climax","saucer",11,1,4,1,34,5.108,NA,NA,1,0,-99,-99
"1282","date","laugh",12,1,5,1,75,2.805,NA,NA,1,0,-99,-99
"1282","knock","otter",12,1,6,1,68,19.462,NA,NA,0,0,-99,-99
"1282","shrink","mafia",10,1,7,1,62,5.554,NA,NA,0,0,-99,-99
"1282","prison","loaf",3,0,8,1,61,3.932,NA,NA,1,0,-99,-99
"1282","caring","skirt",1,0,9,1,69,3.936,NA,NA,1,0,-99,-99
"1282","want","ascent",10,1,10,1,72,4.161,NA,NA,1,0,-99,-99
"1282","pork","emperor",10,1,11,1,79,4.731,NA,NA,1,0,-99,-99
"1282","smother","surgery",3,0,12,1,82,5.199,NA,NA,0,0,-99,-99
"1282","bleach","ruin",10,1,13,1,67,3.948,NA,NA,1,0,-99,-99
"1282","capital","figure",3,0,14,1,38,3.88,NA,NA,1,0,-99,-99
"1282","fan","feature",1,0,15,1,72,3.533,NA,NA,1,0,-99,-99
"1282","process","joker",10,1,16,1,69,3.821,NA,NA,0,0,-99,-99
"1282","bacon","feud",3,0,17,1,39,3.586,NA,NA,0,0,-99,-99
"1282","anger","decay",1,0,18,1,70,3.757,NA,NA,1,0,-99,-99
"1282","remind","foam",2,0,19,1,78,3.887,NA,NA,0,0,-99,-99
"1282","pea","bathtub",12,1,20,1,22,4.025,NA,NA,0,0,-99,-99
"1282","glue","force",11,1,21,1,66,2.912,NA,NA,0,0,-99,-99
"1282","nerve","bumper",11,1,22,1,29,16.996,NA,NA,0,0,-99,-99
"1282","biology","temper",2,0,23,1,65,3.886,NA,NA,1,0,-99,-99
"1282","bias","sirloin",1,0,24,1,32,3.967,NA,NA,1,0,-99,-99
"1282","plant","worm",1,0,25,1,83,3.738,NA,NA,0,0,-99,-99
"1282","need","faucet",11,1,26,1,66,20.42,NA,NA,0,0,-99,-99
"1282","copy","bedroom",3,0,27,1,33,4.544,NA,NA,0,0,-99,-99
"1282","rock","milk",10,1,28,1,66,3.939,NA,NA,1,0,-99,-99
"1282","replace","roach",11,1,29,1,26,4.496,NA,NA,1,0,-99,-99
"1282","chicken","beet",1,0,30,1,67,3.974,NA,NA,1,0,-99,-99
"1282","visit","glove",2,0,31,1,38,1.87,NA,NA,0,0,-99,-99
"1282","fee","chowder",3,0,32,1,59,3.327,NA,NA,1,0,-99,-99
"1282","mill","feast",12,1,33,1,37,2.031,NA,NA,0,0,-99,-99
"1282","calf","annoy",2,0,34,1,61,3.853,NA,NA,1,0,-99,-99
"1282","find","clown",2,0,35,1,25,2.307,NA,NA,0,0,-99,-99
"1282","grip","beach",12,1,36,1,74,2.077,NA,NA,0,0,-99,-99
"1282","biology","temper",2,0,1,2,72,3.444,NA,NA,1,0,-99,-99
"1282","replace","roach",11,1,2,2,76,1.545,NA,NA,1,0,-99,-99
"1282","mill","feast",12,1,3,2,87,2.001,NA,NA,0,0,-99,-99
"1282","pork","emperor",10,1,4,2,78,1.755,NA,NA,1,0,-99,-99
"1282","plant","worm",1,0,5,2,78,1.913,NA,NA,0,0,-99,-99
"1282","need","faucet",11,1,6,2,84,2.254,NA,NA,0,0,-99,-99
"1282","knock","otter",12,1,7,2,81,2.376,NA,NA,0,0,-99,-99
"1282","anger","decay",1,0,8,2,80,1.95,NA,NA,1,0,-99,-99
"1282","port","cinema",2,0,9,2,81,1.961,NA,NA,1,0,-99,-99
"1282","rock","milk",10,1,10,2,84,1.973,NA,NA,1,0,-99,-99
"1282","fee","chowder",3,0,11,2,84,2.072,NA,NA,1,0,-99,-99
"1282","nerve","bumper",11,1,12,2,86,1.829,NA,NA,0,0,-99,-99
"1282","bacon","feud",3,0,13,2,91,1.75,NA,NA,0,0,-99,-99
"1282","want","ascent",10,1,14,2,86,2.266,NA,NA,1,0,-99,-99
"1282","visit","glove",2,0,15,2,90,2.37,NA,NA,0,0,-99,-99
"1282","bias","sirloin",1,0,16,2,84,2.022,NA,NA,1,0,-99,-99
"1282","climax","saucer",11,1,17,2,90,1.915,NA,NA,1,0,-99,-99
"1282","shrink","mafia",10,1,18,2,89,1.392,NA,NA,0,0,-99,-99
"1282","capital","figure",3,0,19,2,89,1.703,NA,NA,1,0,-99,-99
"1282","copy","bedroom",3,0,20,2,86,1.842,NA,NA,0,0,-99,-99
"1282","smother","surgery",3,0,21,2,88,1.773,NA,NA,0,0,-99,-99
"1282","chicken","beet",1,0,22,2,87,1.972,NA,NA,1,0,-99,-99
"1282","bleach","ruin",10,1,23,2,93,1.514,NA,NA,1,0,-99,-99
"1282","glue","force",11,1,24,2,89,1.989,NA,NA,0,0,-99,-99
"1282","caring","skirt",1,0,25,2,91,1.656,NA,NA,1,0,-99,-99
"1282","bullet","walkway",11,1,26,2,90,1.75,NA,NA,0,0,-99,-99
"1282","calf","annoy",2,0,27,2,83,1.58,NA,NA,1,0,-99,-99
"1282","process","joker",10,1,28,2,88,2.018,NA,NA,0,0,-99,-99
"1282","find","clown",2,0,29,2,81,1.761,NA,NA,0,0,-99,-99
"1282","prison","loaf",3,0,30,2,96,2.435,NA,NA,1,0,-99,-99
"1282","link","crisis",12,1,31,2,88,2.413,NA,NA,0,0,-99,-99
"1282","pea","bathtub",12,1,32,2,81,2.472,NA,NA,0,0,-99,-99
"1282","date","laugh",12,1,33,2,86,2.049,NA,NA,1,0,-99,-99
"1282","fan","feature",1,0,34,2,82,2.009,NA,NA,1,0,-99,-99
"1282","remind","foam",2,0,35,2,84,1.548,NA,NA,0,0,-99,-99
"1282","grip","beach",12,1,36,2,86,1.72,NA,NA,0,0,-99,-99
"1282","replace","roach",11,1,1,3,82,2.146,1,0.0277777777777778,1,0,0,-99
"1282","capital","figure",3,0,2,3,78,3.03,2,0.0555555555555556,1,0,0,14.29
"1282","pork","emperor",10,1,3,3,73,2.65,3,0.0833333333333333,1,0,0,1.366
"1282","calf","annoy",2,0,4,3,79,2.166,4,0.111111111111111,1,0,0,1.413
"1282","bias","sirloin",1,0,5,3,75,22.275,5,0.138888888888889,1,0,0,1.252
"1282","climax","saucer",11,1,6,3,76,1.954,6,0.166666666666667,1,0,0,1.249
"1282","biology","temper",2,0,7,3,84,2.401,7,0.194444444444444,1,0,0,1.255
"1282","anger","decay",1,0,8,3,82,1.738,8,0.222222222222222,1,0,0,0.989
"1282","port","cinema",2,0,9,3,73,1.972,9,0.25,1,0,0,1.396
"1282","rock","milk",10,1,10,3,84,1.727,10,0.277777777777778,1,0,0,1.267
"1282","fan","feature",1,0,11,3,93,2.106,11,0.305555555555556,1,0,0,1.086
"1282","prison","loaf",3,0,12,3,68,2.077,12,0.333333333333333,1,0,0,1.161
"1282","bleach","ruin",10,1,13,3,79,1.608,13,0.361111111111111,1,0,0,3.181
"1282","caring","skirt",1,0,14,3,80,1.783,14,0.388888888888889,1,0,0,1.173
"1282","fee","chowder",3,0,15,3,75,2.019,15,0.416666666666667,1,0,0,1.149
"1282","date","laugh",12,1,16,3,73,1.743,16,0.444444444444444,1,0,0,0.749
"1282","want","ascent",10,1,17,3,75,1.724,17,0.472222222222222,1,0,0,1.131
"1282","chicken","beet",1,0,18,3,82,2.097,18,0.5,1,0,0,1.125
"1282","remind","foam",2,0,19,3,81,1.795,19,0.527777777777778,0,0,1,1.407
"1282","link","crisis",12,1,20,3,92,2.457,20,0.555555555555556,0,0,1,1.355
"1282","mill","feast",12,1,21,3,77,1.819,21,0.583333333333333,0,0,1,1.219
"1282","visit","glove",2,0,22,3,74,1.847,22,0.611111111111111,0,0,1,1.238
"1282","process","joker",10,1,23,3,73,1.937,23,0.638888888888889,0,0,1,0.984
"1282","need","faucet",11,1,24,3,77,1.614,24,0.666666666666667,0,0,1,0.832
"1282","pea","bathtub",12,1,25,3,78,2.034,25,0.694444444444444,0,0,1,0.937
"1282","nerve","bumper",11,1,26,3,73,1.807,26,0.722222222222222,0,0,1,1.197
"1282","glue","force",11,1,27,3,75,2.012,27,0.75,0,0,1,1.125
"1282","smother","surgery",3,0,28,3,90,1.946,28,0.777777777777778,0,0,1,1.015
"1282","knock","otter",12,1,29,3,72,1.679,29,0.805555555555556,0,0,1,0.891
"1282","find","clown",2,0,30,3,74,1.601,30,0.833333333333333,0,0,1,1.108
"1282","shrink","mafia",10,1,31,3,73,1.86,31,0.861111111111111,0,0,1,1.062
"1282","copy","bedroom",3,0,32,3,76,1.589,32,0.888888888888889,0,0,1,1.331
"1282","bacon","feud",3,0,33,3,81,1.789,33,0.916666666666667,0,0,1,2.095
"1282","grip","beach",12,1,34,3,82,1.859,34,0.944444444444444,0,0,1,1.454
"1282","bullet","walkway",11,1,35,3,72,1.846,35,0.972222222222222,0,0,1,1.05
"1282","plant","worm",1,0,36,3,85,2.013,36,1,0,0,1,1.612
"1302","calf","annoy",2,0,1,1,80,89.796,NA,NA,0,0,-99,-99
"1302","biology","temper",2,0,2,1,90,18.757,NA,NA,0,0,-99,-99
"1302","caring","skirt",1,0,3,1,80,25.497,NA,NA,1,0,-99,-99
"1302","smother","surgery",3,0,4,1,70,12.046,NA,NA,0,0,-99,-99
"1302","link","crisis",12,1,5,1,74,12.859,NA,NA,1,0,-99,-99
"1302","knock","otter",12,1,6,1,80,7.671,NA,NA,1,0,-99,-99
"1302","fee","chowder",3,0,7,1,81,10.045,NA,NA,0,0,-99,-99
"1302","climax","saucer",11,1,8,1,88,20.385,NA,NA,0,0,-99,-99
"1302","copy","bedroom",3,0,9,1,76,8.433,NA,NA,1,0,-99,-99
"1302","date","laugh",12,1,10,1,75,15.427,NA,NA,1,0,-99,-99
"1302","want","ascent",10,1,11,1,73,9.579,NA,NA,1,0,-99,-99
"1302","prison","loaf",3,0,12,1,62,20.905,NA,NA,1,0,-99,-99
"1302","shrink","mafia",10,1,13,1,71,11.486,NA,NA,0,0,-99,-99
"1302","anger","decay",1,0,14,1,69,11.779,NA,NA,1,0,-99,-99
"1302","bleach","ruin",10,1,15,1,59,14.719,NA,NA,0,0,-99,-99
"1302","find","clown",2,0,16,1,51,11.392,NA,NA,1,0,-99,-99
"1302","visit","glove",2,0,17,1,57,9.627,NA,NA,0,0,-99,-99
"1302","grip","beach",12,1,18,1,76,8.355,NA,NA,1,0,-99,-99
"1302","need","faucet",11,1,19,1,78,7.682,NA,NA,1,0,-99,-99
"1302","replace","roach",11,1,20,1,74,6.913,NA,NA,0,0,-99,-99
"1302","remind","foam",2,0,21,1,29,2.512,NA,NA,0,0,-99,-99
"1302","pea","bathtub",12,1,22,1,68,10.028,NA,NA,0,0,-99,-99
"1302","rock","milk",10,1,23,1,92,6.561,NA,NA,1,0,-99,-99
"1302","plant","worm",1,0,24,1,39,5.37,NA,NA,0,0,-99,-99
"1302","nerve","bumper",11,1,25,1,58,59.098,NA,NA,0,0,-99,-99
"1302","port","cinema",2,0,26,1,88,8.753,NA,NA,0,0,-99,-99
"1302","glue","force",11,1,27,1,60,7.843,NA,NA,1,0,-99,-99
"1302","bias","sirloin",1,0,28,1,16,8.12,NA,NA,1,0,-99,-99
"1302","chicken","beet",1,0,29,1,70,9.457,NA,NA,1,0,-99,-99
"1302","bullet","walkway",11,1,30,1,70,10.73,NA,NA,1,0,-99,-99
"1302","fan","feature",1,0,31,1,78,8.561,NA,NA,0,0,-99,-99
"1302","mill","feast",12,1,32,1,73,12.011,NA,NA,0,0,-99,-99
"1302","process","joker",10,1,33,1,71,7.84,NA,NA,0,0,-99,-99
"1302","capital","figure",3,0,34,1,85,8.338,NA,NA,0,0,-99,-99
"1302","bacon","feud",3,0,35,1,63,10.02,NA,NA,1,0,-99,-99
"1302","pork","emperor",10,1,36,1,63,8.412,NA,NA,1,0,-99,-99
"1302","grip","beach",12,1,1,2,74,8.596,NA,NA,1,0,-99,-99
"1302","copy","bedroom",3,0,2,2,72,6.971,NA,NA,1,0,-99,-99
"1302","capital","figure",3,0,3,2,86,8.882,NA,NA,0,0,-99,-99
"1302","bleach","ruin",10,1,4,2,74,7.145,NA,NA,0,0,-99,-99
"1302","prison","loaf",3,0,5,2,68,8.608,NA,NA,1,0,-99,-99
"1302","need","faucet",11,1,6,2,80,10.73,NA,NA,1,0,-99,-99
"1302","knock","otter",12,1,7,2,80,6.141,NA,NA,1,0,-99,-99
"1302","chicken","beet",1,0,8,2,95,19.963,NA,NA,1,0,-99,-99
"1302","rock","milk",10,1,9,2,100,10.461,NA,NA,1,0,-99,-99
"1302","smother","surgery",3,0,10,2,81,7.342,NA,NA,0,0,-99,-99
"1302","calf","annoy",2,0,11,2,40,5.708,NA,NA,0,0,-99,-99
"1302","pork","emperor",10,1,12,2,71,10.041,NA,NA,1,0,-99,-99
"1302","find","clown",2,0,13,2,70,5.7,NA,NA,1,0,-99,-99
"1302","port","cinema",2,0,14,2,88,5.442,NA,NA,0,0,-99,-99
"1302","climax","saucer",11,1,15,2,86,12.158,NA,NA,0,0,-99,-99
"1302","mill","feast",12,1,16,2,87,6.338,NA,NA,0,0,-99,-99
"1302","visit","glove",2,0,17,2,62,5.762,NA,NA,0,0,-99,-99
"1302","date","laugh",12,1,18,2,66,6.218,NA,NA,1,0,-99,-99
"1302","remind","foam",2,0,19,2,80,7.224,NA,NA,0,0,-99,-99
"1302","nerve","bumper",11,1,20,2,70,5.498,NA,NA,0,0,-99,-99
"1302","link","crisis",12,1,21,2,77,6.12,NA,NA,1,0,-99,-99
"1302","plant","worm",1,0,22,2,84,6.834,NA,NA,0,0,-99,-99
"1302","replace","roach",11,1,23,2,67,8.754,NA,NA,0,0,-99,-99
"1302","anger","decay",1,0,24,2,72,14.138,NA,NA,1,0,-99,-99
"1302","caring","skirt",1,0,25,2,74,7.859,NA,NA,1,0,-99,-99
"1302","biology","temper",2,0,26,2,43,6.778,NA,NA,0,0,-99,-99
"1302","shrink","mafia",10,1,27,2,82,5.314,NA,NA,0,0,-99,-99
"1302","pea","bathtub",12,1,28,2,85,5.818,NA,NA,0,0,-99,-99
"1302","bullet","walkway",11,1,29,2,84,4.892,NA,NA,1,0,-99,-99
"1302","fan","feature",1,0,30,2,73,5.123,NA,NA,0,0,-99,-99
"1302","bias","sirloin",1,0,31,2,31,8.419,NA,NA,1,0,-99,-99
"1302","fee","chowder",3,0,32,2,69,5.745,NA,NA,0,0,-99,-99
"1302","want","ascent",10,1,33,2,66,9.255,NA,NA,1,0,-99,-99
"1302","bacon","feud",3,0,34,2,81,9.389,NA,NA,1,0,-99,-99
"1302","process","joker",10,1,35,2,89,8.178,NA,NA,0,0,-99,-99
"1302","glue","force",11,1,36,2,85,9.342,NA,NA,1,0,-99,-99
"1302","pea","bathtub",12,1,1,3,79,29.2,1,0.0277777777777778,0,0,1,-99
"1302","remind","foam",2,0,2,3,80,11.507,2,0.0555555555555556,0,0,1,10.957
"1302","mill","feast",12,1,3,3,86,8.346,3,0.0833333333333333,0,0,1,10.759
"1302","smother","surgery",3,0,4,3,80,10.295,4,0.111111111111111,0,0,1,1.799
"1302","plant","worm",1,0,5,3,40,7.731,5,0.138888888888889,0,0,1,1.917
"1302","port","cinema",2,0,6,3,71,6.584,6,0.166666666666667,0,0,1,1.44
"1302","climax","saucer",11,1,7,3,75,12.656,7,0.194444444444444,0,0,1,1.509
"1302","shrink","mafia",10,1,8,3,93,6.761,8,0.222222222222222,0,0,1,1.119
"1302","fee","chowder",3,0,9,3,70,10.012,9,0.25,0,0,1,1.095
"1302","replace","roach",11,1,10,3,70,7.666,10,0.277777777777778,0,0,1,1.228
"1302","fan","feature",1,0,11,3,95,12.233,11,0.305555555555556,0,0,1,1.327
"1302","bleach","ruin",10,1,12,3,79,12.534,12,0.333333333333333,0,0,1,1.118
"1302","capital","figure",3,0,13,3,85,10.975,13,0.361111111111111,0,0,1,9.775
"1302","process","joker",10,1,14,3,90,7.748,14,0.388888888888889,0,0,1,4.415
"1302","calf","annoy",2,0,15,3,85,11.774,15,0.416666666666667,0,0,1,1.452
"1302","visit","glove",2,0,16,3,71,6.785,16,0.444444444444444,0,0,1,1.166
"1302","nerve","bumper",11,1,17,3,86,8.571,17,0.472222222222222,0,0,1,1.11
"1302","biology","temper",2,0,18,3,75,9.219,18,0.5,0,0,1,1.375
"1302","find","clown",2,0,19,3,85,9.894,19,0.527777777777778,1,0,0,1.016
"1302","chicken","beet",1,0,20,3,75,11.18,20,0.555555555555556,1,0,0,23.455
"1302","grip","beach",12,1,21,3,80,6.546,21,0.583333333333333,1,0,0,1.894
"1302","bullet","walkway",11,1,22,3,75,7.131,22,0.611111111111111,1,0,0,2.543
"1302","date","laugh",12,1,23,3,75,7.779,23,0.638888888888889,1,0,0,1.311
"1302","bacon","feud",3,0,24,3,31,6.747,24,0.666666666666667,1,0,0,1.215
"1302","bias","sirloin",1,0,25,3,55,6.718,25,0.694444444444444,1,0,0,0.702
"1302","prison","loaf",3,0,26,3,76,5.379,26,0.722222222222222,1,0,0,0.864
"1302","link","crisis",12,1,27,3,65,7.891,27,0.75,1,0,0,0.791
"1302","need","faucet",11,1,28,3,75,10.599,28,0.777777777777778,1,0,0,1.006
"1302","pork","emperor",10,1,29,3,90,5.922,29,0.805555555555556,1,0,0,0.982
"1302","glue","force",11,1,30,3,84,7.451,30,0.833333333333333,1,0,0,0.952
"1302","knock","otter",12,1,31,3,55,8.713,31,0.861111111111111,1,0,0,0.864
"1302","copy","bedroom",3,0,32,3,90,7.875,32,0.888888888888889,1,0,0,0.847
"1302","caring","skirt",1,0,33,3,70,10.022,33,0.916666666666667,1,0,0,0.999
"1302","rock","milk",10,1,34,3,100,6.824,34,0.944444444444444,1,0,0,0.999
"1302","anger","decay",1,0,35,3,60,9.402,35,0.972222222222222,1,0,0,1.231
"1302","want","ascent",10,1,36,3,80,8.393,36,1,1,0,0,2.071
"1584","link","crisis",12,1,1,1,8,5.078,NA,NA,1,0,-99,-99
"1584","replace","roach",11,1,2,1,9,4.171,NA,NA,0,0,-99,-99
"1584","fee","chowder",3,0,3,1,11,3.202,NA,NA,0,0,-99,-99
"1584","glue","force",11,1,4,1,8,2.501,NA,NA,1,0,-99,-99
"1584","grip","beach",12,1,5,1,12,2.485,NA,NA,0,0,-99,-99
"1584","calf","annoy",2,0,6,1,14,2.45,NA,NA,0,0,-99,-99
"1584","copy","bedroom",3,0,7,1,9,2.534,NA,NA,1,0,-99,-99
"1584","mill","feast",12,1,8,1,13,3.557,NA,NA,1,0,-99,-99
"1584","bleach","ruin",10,1,9,1,43,6.089,NA,NA,0,0,-99,-99
"1584","pork","emperor",10,1,10,1,8,2.152,NA,NA,1,0,-99,-99
"1584","process","joker",10,1,11,1,7,2.702,NA,NA,1,0,-99,-99
"1584","plant","worm",1,0,12,1,8,3.25,NA,NA,0,0,-99,-99
"1584","anger","decay",1,0,13,1,18,2.628,NA,NA,0,0,-99,-99
"1584","bacon","feud",3,0,14,1,8,2.576,NA,NA,1,0,-99,-99
"1584","date","laugh",12,1,15,1,24,4.486,NA,NA,1,0,-99,-99
"1584","biology","temper",2,0,16,1,13,2.55,NA,NA,0,0,-99,-99
"1584","smother","surgery",3,0,17,1,5,2.45,NA,NA,1,0,-99,-99
"1584","port","cinema",2,0,18,1,11,3.104,NA,NA,1,0,-99,-99
"1584","need","faucet",11,1,19,1,8,2.894,NA,NA,0,0,-99,-99
"1584","chicken","beet",1,0,20,1,10,3.538,NA,NA,1,0,-99,-99
"1584","bullet","walkway",11,1,21,1,7,2.989,NA,NA,0,0,-99,-99
"1584","fan","feature",1,0,22,1,8,2.606,NA,NA,0,0,-99,-99
"1584","visit","glove",2,0,23,1,12,2.427,NA,NA,1,0,-99,-99
"1584","capital","figure",3,0,24,1,7,2.67,NA,NA,0,0,-99,-99
"1584","caring","skirt",1,0,25,1,10,2.716,NA,NA,1,0,-99,-99
"1584","find","clown",2,0,26,1,5,2.495,NA,NA,0,0,-99,-99
"1584","rock","milk",10,1,27,1,8,2.841,NA,NA,0,0,-99,-99
"1584","remind","foam",2,0,28,1,9,3.017,NA,NA,0,0,-99,-99
"1584","knock","otter",12,1,29,1,6,2.882,NA,NA,1,0,-99,-99
"1584","bias","sirloin",1,0,30,1,6,2.84,NA,NA,1,0,-99,-99
"1584","want","ascent",10,1,31,1,6,2.621,NA,NA,1,0,-99,-99
"1584","nerve","bumper",11,1,32,1,6,2.482,NA,NA,0,0,-99,-99
"1584","pea","bathtub",12,1,33,1,12,2.138,NA,NA,0,0,-99,-99
"1584","climax","saucer",11,1,34,1,8,2.814,NA,NA,0,0,-99,-99
"1584","shrink","mafia",10,1,35,1,10,3.412,NA,NA,1,0,-99,-99
"1584","prison","loaf",3,0,36,1,16,2.009,NA,NA,1,0,-99,-99
"1584","nerve","bumper",11,1,1,2,24,2.962,NA,NA,0,0,-99,-99
"1584","grip","beach",12,1,2,2,27,2.416,NA,NA,0,0,-99,-99
"1584","caring","skirt",1,0,3,2,26,3.035,NA,NA,1,0,-99,-99
"1584","port","cinema",2,0,4,2,23,2.784,NA,NA,1,0,-99,-99
"1584","plant","worm",1,0,5,2,31,2.755,NA,NA,0,0,-99,-99
"1584","pea","bathtub",12,1,6,2,35,2.223,NA,NA,0,0,-99,-99
"1584","need","faucet",11,1,7,2,27,2.206,NA,NA,0,0,-99,-99
"1584","shrink","mafia",10,1,8,2,25,3.266,NA,NA,1,0,-99,-99
"1584","find","clown",2,0,9,2,24,2.702,NA,NA,0,0,-99,-99
"1584","capital","figure",3,0,10,2,26,2.693,NA,NA,0,0,-99,-99
"1584","visit","glove",2,0,11,2,20,2.439,NA,NA,1,0,-99,-99
"1584","want","ascent",10,1,12,2,21,3.274,NA,NA,1,0,-99,-99
"1584","bullet","walkway",11,1,13,2,24,2.662,NA,NA,0,0,-99,-99
"1584","bacon","feud",3,0,14,2,27,3.394,NA,NA,1,0,-99,-99
"1584","glue","force",11,1,15,2,31,2.334,NA,NA,1,0,-99,-99
"1584","bias","sirloin",1,0,16,2,29,2.913,NA,NA,1,0,-99,-99
"1584","chicken","beet",1,0,17,2,39,4.808,NA,NA,1,0,-99,-99
"1584","biology","temper",2,0,18,2,40,2.266,NA,NA,0,0,-99,-99
"1584","process","joker",10,1,19,2,27,3.115,NA,NA,1,0,-99,-99
"1584","anger","decay",1,0,20,2,36,2.106,NA,NA,0,0,-99,-99
"1584","replace","roach",11,1,21,2,31,3.459,NA,NA,0,0,-99,-99
"1584","date","laugh",12,1,22,2,40,5.628,NA,NA,1,0,-99,-99
"1584","bleach","ruin",10,1,23,2,43,3.076,NA,NA,0,0,-99,-99
"1584","smother","surgery",3,0,24,2,29,2.425,NA,NA,1,0,-99,-99
"1584","remind","foam",2,0,25,2,29,3.085,NA,NA,0,0,-99,-99
"1584","rock","milk",10,1,26,2,31,3.165,NA,NA,0,0,-99,-99
"1584","climax","saucer",11,1,27,2,30,3.273,NA,NA,0,0,-99,-99
"1584","prison","loaf",3,0,28,2,36,4.609,NA,NA,1,0,-99,-99
"1584","pork","emperor",10,1,29,2,31,2.541,NA,NA,1,0,-99,-99
"1584","link","crisis",12,1,30,2,35,2.737,NA,NA,1,0,-99,-99
"1584","mill","feast",12,1,31,2,30,3.095,NA,NA,1,0,-99,-99
"1584","copy","bedroom",3,0,32,2,33,3.415,NA,NA,1,0,-99,-99
"1584","fee","chowder",3,0,33,2,31,4.252,NA,NA,0,0,-99,-99
"1584","calf","annoy",2,0,34,2,33,2.469,NA,NA,0,0,-99,-99
"1584","fan","feature",1,0,35,2,36,3.169,NA,NA,0,0,-99,-99
"1584","knock","otter",12,1,36,2,31,2.593,NA,NA,1,0,-99,-99
"1584","find","clown",2,0,1,3,32,4.224,1,0.0277777777777778,0,0,1,-99
"1584","capital","figure",3,0,2,3,31,3.347,2,0.0555555555555556,0,0,1,5.81
"1584","rock","milk",10,1,3,3,38,2.621,3,0.0833333333333333,0,0,1,4.598
"1584","nerve","bumper",11,1,4,3,30,2.401,4,0.111111111111111,0,0,1,1.313
"1584","grip","beach",12,1,5,3,32,2.864,5,0.138888888888889,0,0,1,1.058
"1584","climax","saucer",11,1,6,3,32,1.994,6,0.166666666666667,0,0,1,1.039
"1584","fan","feature",1,0,7,3,34,2.038,7,0.194444444444444,0,0,1,1.373
"1584","bullet","walkway",11,1,8,3,38,2.34,8,0.222222222222222,0,0,1,0.949
"1584","replace","roach",11,1,9,3,34,2.299,9,0.25,0,0,1,2.929
"1584","bleach","ruin",10,1,10,3,35,2.337,10,0.277777777777778,0,0,1,1.784
"1584","biology","temper",2,0,11,3,33,1.976,11,0.305555555555556,0,0,1,1.791
"1584","fee","chowder",3,0,12,3,30,2.066,12,0.333333333333333,0,0,1,1.77
"1584","pea","bathtub",12,1,13,3,39,2.409,13,0.361111111111111,0,0,1,1.351
"1584","need","faucet",11,1,14,3,39,2.218,14,0.388888888888889,0,0,1,1.163
"1584","plant","worm",1,0,15,3,34,2.383,15,0.416666666666667,0,0,1,1.397
"1584","calf","annoy",2,0,16,3,35,2.247,16,0.444444444444444,0,0,1,1.861
"1584","anger","decay",1,0,17,3,33,2.06,17,0.472222222222222,0,0,1,1.188
"1584","remind","foam",2,0,18,3,31,2.287,18,0.5,0,0,1,1.125
"1584","copy","bedroom",3,0,19,3,36,1.962,19,0.527777777777778,1,0,0,1.018
"1584","visit","glove",2,0,20,3,29,1.823,20,0.555555555555556,1,0,0,1.342
"1584","smother","surgery",3,0,21,3,30,1.857,21,0.583333333333333,1,0,0,1.002
"1584","bias","sirloin",1,0,22,3,34,2.459,22,0.611111111111111,1,0,0,1.142
"1584","link","crisis",12,1,23,3,31,2.126,23,0.638888888888889,1,0,0,0.99
"1584","port","cinema",2,0,24,3,36,2.686,24,0.666666666666667,1,0,0,2.429
"1584","mill","feast",12,1,25,3,36,2.47,25,0.694444444444444,1,0,0,1.026
"1584","bacon","feud",3,0,26,3,36,2.541,26,0.722222222222222,1,0,0,2.896
"1584","shrink","mafia",10,1,27,3,33,3.692,27,0.75,1,0,0,2.346
"1584","glue","force",11,1,28,3,29,2.334,28,0.777777777777778,1,0,0,3.275
"1584","prison","loaf",3,0,29,3,33,2.73,29,0.805555555555556,1,0,0,3.134
"1584","knock","otter",12,1,30,3,32,2.206,30,0.833333333333333,1,0,0,1.8
"1584","want","ascent",10,1,31,3,34,2.78,31,0.861111111111111,1,0,0,1.319
"1584","process","joker",10,1,32,3,32,3.267,32,0.888888888888889,1,0,0,1.451
"1584","pork","emperor",10,1,33,3,32,2.276,33,0.916666666666667,1,0,0,2.624
"1584","chicken","beet",1,0,34,3,31,2.68,34,0.944444444444444,1,0,0,3.916
"1584","caring","skirt",1,0,35,3,31,1.991,35,0.972222222222222,1,0,0,2.29
"1584","date","laugh",12,1,36,3,37,5.263,36,1,1,0,0,3.2
"1636","date","laugh",12,1,1,1,100,7.828,NA,NA,0,0,-99,-99
"1636","anger","decay",1,0,2,1,60,5.578,NA,NA,1,0,-99,-99
"1636","grip","beach",12,1,3,1,100,3.352,NA,NA,0,0,-99,-99
"1636","knock","otter",12,1,4,1,100,19.798,NA,NA,0,0,-99,-99
"1636","fan","feature",1,0,5,1,55,11.503,NA,NA,1,0,-99,-99
"1636","bacon","feud",3,0,6,1,70,12.064,NA,NA,1,0,-99,-99
"1636","biology","temper",2,0,7,1,55,58.122,NA,NA,1,0,-99,-99
"1636","fee","chowder",3,0,8,1,60,12.784,NA,NA,1,0,-99,-99
"1636","process","joker",10,1,9,1,100,6.136,NA,NA,0,0,-99,-99
"1636","visit","glove",2,0,10,1,65,9.327,NA,NA,1,0,-99,-99
"1636","chicken","beet",1,0,11,1,45,9.04,NA,NA,1,0,-99,-99
"1636","shrink","mafia",10,1,12,1,95,10.374,NA,NA,0,0,-99,-99
"1636","bias","sirloin",1,0,13,1,70,10.31,NA,NA,1,0,-99,-99
"1636","pea","bathtub",12,1,14,1,100,6.561,NA,NA,0,0,-99,-99
"1636","climax","saucer",11,1,15,1,100,7.064,NA,NA,0,0,-99,-99
"1636","remind","foam",2,0,16,1,60,8.691,NA,NA,1,0,-99,-99
"1636","capital","figure",3,0,17,1,65,7.631,NA,NA,1,0,-99,-99
"1636","prison","loaf",3,0,18,1,75,8.261,NA,NA,1,0,-99,-99
"1636","copy","bedroom",3,0,19,1,60,5.606,NA,NA,1,0,-99,-99
"1636","mill","feast",12,1,20,1,100,5.404,NA,NA,0,0,-99,-99
"1636","calf","annoy",2,0,21,1,70,7.651,NA,NA,1,0,-99,-99
"1636","find","clown",2,0,22,1,60,6.021,NA,NA,1,0,-99,-99
"1636","caring","skirt",1,0,23,1,50,6.667,NA,NA,1,0,-99,-99
"1636","plant","worm",1,0,24,1,65,6.174,NA,NA,1,0,-99,-99
"1636","link","crisis",12,1,25,1,100,6.443,NA,NA,0,0,-99,-99
"1636","glue","force",11,1,26,1,100,5.528,NA,NA,0,0,-99,-99
"1636","replace","roach",11,1,27,1,100,5.596,NA,NA,0,0,-99,-99
"1636","want","ascent",10,1,28,1,95,6.729,NA,NA,0,0,-99,-99
"1636","nerve","bumper",11,1,29,1,95,6.174,NA,NA,0,0,-99,-99
"1636","bullet","walkway",11,1,30,1,90,5.908,NA,NA,0,0,-99,-99
"1636","port","cinema",2,0,31,1,60,9.72,NA,NA,1,0,-99,-99
"1636","need","faucet",11,1,32,1,95,6.129,NA,NA,0,0,-99,-99
"1636","bleach","ruin",10,1,33,1,90,6.316,NA,NA,0,0,-99,-99
"1636","pork","emperor",10,1,34,1,95,7.617,NA,NA,0,0,-99,-99
"1636","rock","milk",10,1,35,1,95,7.588,NA,NA,0,0,-99,-99
"1636","smother","surgery",3,0,36,1,55,5.78,NA,NA,1,0,-99,-99
"1636","bacon","feud",3,0,1,2,70,17.523,NA,NA,1,0,-99,-99
"1636","bias","sirloin",1,0,2,2,70,11.335,NA,NA,1,0,-99,-99
"1636","process","joker",10,1,3,2,100,6.278,NA,NA,0,0,-99,-99
"1636","copy","bedroom",3,0,4,2,60,12.865,NA,NA,1,0,-99,-99
"1636","rock","milk",10,1,5,2,95,7.459,NA,NA,0,0,-99,-99
"1636","nerve","bumper",11,1,6,2,95,7.557,NA,NA,0,0,-99,-99
"1636","calf","annoy",2,0,7,2,70,12.246,NA,NA,1,0,-99,-99
"1636","date","laugh",12,1,8,2,100,4.577,NA,NA,0,0,-99,-99
"1636","find","clown",2,0,9,2,60,17.797,NA,NA,1,0,-99,-99
"1636","glue","force",11,1,10,2,100,4.313,NA,NA,0,0,-99,-99
"1636","visit","glove",2,0,11,2,65,17.731,NA,NA,1,0,-99,-99
"1636","pork","emperor",10,1,12,2,95,7.555,NA,NA,0,0,-99,-99
"1636","plant","worm",1,0,13,2,90,9.413,NA,NA,1,0,-99,-99
"1636","knock","otter",12,1,14,2,100,2.532,NA,NA,0,0,-99,-99
"1636","prison","loaf",3,0,15,2,85,6.3,NA,NA,1,0,-99,-99
"1636","link","crisis",12,1,16,2,100,2.606,NA,NA,0,0,-99,-99
"1636","need","faucet",11,1,17,2,100,3.844,NA,NA,0,0,-99,-99
"1636","smother","surgery",3,0,18,2,80,3.213,NA,NA,1,0,-99,-99
"1636","bleach","ruin",10,1,19,2,100,2.377,NA,NA,0,0,-99,-99
"1636","remind","foam",2,0,20,2,75,4.288,NA,NA,1,0,-99,-99
"1636","capital","figure",3,0,21,2,60,2.634,NA,NA,1,0,-99,-99
"1636","bullet","walkway",11,1,22,2,100,2.574,NA,NA,0,0,-99,-99
"1636","fee","chowder",3,0,23,2,70,3.644,NA,NA,1,0,-99,-99
"1636","fan","feature",1,0,24,2,65,3.514,NA,NA,1,0,-99,-99
"1636","grip","beach",12,1,25,2,100,2.669,NA,NA,0,0,-99,-99
"1636","chicken","beet",1,0,26,2,70,7.138,NA,NA,1,0,-99,-99
"1636","pea","bathtub",12,1,27,2,100,2.327,NA,NA,0,0,-99,-99
"1636","caring","skirt",1,0,28,2,75,4.554,NA,NA,1,0,-99,-99
"1636","want","ascent",10,1,29,2,100,3.718,NA,NA,0,0,-99,-99
"1636","anger","decay",1,0,30,2,66,4.459,NA,NA,1,0,-99,-99
"1636","port","cinema",2,0,31,2,75,5.446,NA,NA,1,0,-99,-99
"1636","mill","feast",12,1,32,2,100,2.95,NA,NA,0,0,-99,-99
"1636","shrink","mafia",10,1,33,2,100,5.681,NA,NA,0,0,-99,-99
"1636","climax","saucer",11,1,34,2,100,3.379,NA,NA,0,0,-99,-99
"1636","biology","temper",2,0,35,2,70,4.198,NA,NA,1,0,-99,-99
"1636","replace","roach",11,1,36,2,100,3.801,NA,NA,0,0,-99,-99
"1636","biology","temper",2,0,1,3,75,8.411,1,0.0277777777777778,1,0,0,-99
"1636","caring","skirt",1,0,2,3,75,5.035,2,0.0555555555555556,1,0,0,17.519
"1636","nerve","bumper",11,1,3,3,100,2.788,3,0.0833333333333333,0,0,1,1.266
"1636","glue","force",11,1,4,3,100,3.565,4,0.111111111111111,0,0,1,1.347
"1636","chicken","beet",1,0,5,3,80,3.823,5,0.138888888888889,1,0,0,4.076
"1636","bacon","feud",3,0,6,3,70,3.376,6,0.166666666666667,1,0,0,1.903
"1636","date","laugh",12,1,7,3,100,2.49,7,0.194444444444444,0,0,1,1.36
"1636","capital","figure",3,0,8,3,75,7.281,8,0.222222222222222,1,0,0,1.305
"1636","bias","sirloin",1,0,9,3,80,3.42,9,0.25,1,0,0,0.939
"1636","pork","emperor",10,1,10,3,100,2.269,10,0.277777777777778,0,0,1,1.208
"1636","port","cinema",2,0,11,3,85,4.039,11,0.305555555555556,1,0,0,0.938
"1636","need","faucet",11,1,12,3,100,2.453,12,0.333333333333333,0,0,1,0.962
"1636","plant","worm",1,0,13,3,85,4.346,13,0.361111111111111,1,0,0,1.034
"1636","find","clown",2,0,14,3,80,3,14,0.388888888888889,1,0,0,0.925
"1636","knock","otter",12,1,15,3,100,2.302,15,0.416666666666667,0,0,1,0.955
"1636","climax","saucer",11,1,16,3,100,3.029,16,0.444444444444444,0,0,1,0.995
"1636","prison","loaf",3,0,17,3,90,3.336,17,0.472222222222222,1,0,0,0.986
"1636","want","ascent",10,1,18,3,100,2.516,18,0.5,0,0,1,1.044
"1636","fan","feature",1,0,19,3,75,3.293,19,0.527777777777778,1,0,0,1.185
"1636","rock","milk",10,1,20,3,100,2.403,20,0.555555555555556,0,0,1,0.922
"1636","fee","chowder",3,0,21,3,85,6.131,21,0.583333333333333,1,0,0,1.224
"1636","smother","surgery",3,0,22,3,80,4.245,22,0.611111111111111,1,0,0,1.227
"1636","visit","glove",2,0,23,3,70,3.166,23,0.638888888888889,1,0,0,1.016
"1636","copy","bedroom",3,0,24,3,75,3.463,24,0.666666666666667,1,0,0,0.867
"1636","replace","roach",11,1,25,3,100,2.755,25,0.694444444444444,0,0,1,0.837
"1636","shrink","mafia",10,1,26,3,100,2.596,26,0.722222222222222,0,0,1,1.094
"1636","link","crisis",12,1,27,3,100,2.153,27,0.75,0,0,1,0.979
"1636","calf","annoy",2,0,28,3,80,2.867,28,0.777777777777778,1,0,0,0.764
"1636","bullet","walkway",11,1,29,3,100,2.138,29,0.805555555555556,0,0,1,1.026
"1636","mill","feast",12,1,30,3,100,2.638,30,0.833333333333333,0,0,1,6.148
"1636","anger","decay",1,0,31,3,80,3.213,31,0.861111111111111,1,0,0,1.023
"1636","process","joker",10,1,32,3,100,2.73,32,0.888888888888889,0,0,1,0.972
"1636","bleach","ruin",10,1,33,3,100,2.247,33,0.916666666666667,0,0,1,0.898
"1636","grip","beach",12,1,34,3,100,2.412,34,0.944444444444444,0,0,1,0.928
"1636","pea","bathtub",12,1,35,3,100,2.146,35,0.972222222222222,0,0,1,1.208
"1636","remind","foam",2,0,36,3,75,3.911,36,1,1,0,0,1.314
"1700","plant","worm",1,0,1,1,75,2.559,NA,NA,1,0,-99,-99
"1700","shrink","mafia",10,1,2,1,35,1.627,NA,NA,0,0,-99,-99
"1700","replace","roach",11,1,3,1,20,2.99,NA,NA,0,0,-99,-99
"1700","pork","emperor",10,1,4,1,67,1.862,NA,NA,0,0,-99,-99
"1700","copy","bedroom",3,0,5,1,12,1.692,NA,NA,1,0,-99,-99
"1700","anger","decay",1,0,6,1,36,1.432,NA,NA,1,0,-99,-99
"1700","remind","foam",2,0,7,1,11,1.709,NA,NA,0,0,-99,-99
"1700","nerve","bumper",11,1,8,1,36,1.872,NA,NA,0,0,-99,-99
"1700","calf","annoy",2,0,9,1,60,1.358,NA,NA,1,0,-99,-99
"1700","pea","bathtub",12,1,10,1,25,2.534,NA,NA,0,0,-99,-99
"1700","caring","skirt",1,0,11,1,37,1.584,NA,NA,1,0,-99,-99
"1700","capital","figure",3,0,12,1,71,1.474,NA,NA,1,0,-99,-99
"1700","rock","milk",10,1,13,1,42,2.408,NA,NA,0,0,-99,-99
"1700","bullet","walkway",11,1,14,1,26,2.099,NA,NA,0,0,-99,-99
"1700","bacon","feud",3,0,15,1,73,1.689,NA,NA,1,0,-99,-99
"1700","grip","beach",12,1,16,1,35,2.405,NA,NA,0,0,-99,-99
"1700","climax","saucer",11,1,17,1,21,2.55,NA,NA,0,0,-99,-99
"1700","biology","temper",2,0,18,1,58,1.478,NA,NA,1,0,-99,-99
"1700","find","clown",2,0,19,1,33,1.622,NA,NA,1,0,-99,-99
"1700","mill","feast",12,1,20,1,20,1.41,NA,NA,0,0,-99,-99
"1700","prison","loaf",3,0,21,1,36,2.076,NA,NA,1,0,-99,-99
"1700","need","faucet",11,1,22,1,57,2.202,NA,NA,0,0,-99,-99
"1700","glue","force",11,1,23,1,75,1.699,NA,NA,0,0,-99,-99
"1700","smother","surgery",3,0,24,1,71,1.546,NA,NA,1,0,-99,-99
"1700","fee","chowder",3,0,25,1,32,2.302,NA,NA,1,0,-99,-99
"1700","fan","feature",1,0,26,1,64,1.4,NA,NA,1,0,-99,-99
"1700","knock","otter",12,1,27,1,23,2.398,NA,NA,0,0,-99,-99
"1700","bias","sirloin",1,0,28,1,35,2.396,NA,NA,1,0,-99,-99
"1700","link","crisis",12,1,29,1,14,1.447,NA,NA,0,0,-99,-99
"1700","process","joker",10,1,30,1,30,2.695,NA,NA,0,0,-99,-99
"1700","chicken","beet",1,0,31,1,58,1.481,NA,NA,1,0,-99,-99
"1700","visit","glove",2,0,32,1,72,1.813,NA,NA,1,0,-99,-99
"1700","date","laugh",12,1,33,1,65,1.592,NA,NA,0,0,-99,-99
"1700","want","ascent",10,1,34,1,42,1.638,NA,NA,0,0,-99,-99
"1700","port","cinema",2,0,35,1,60,1.535,NA,NA,1,0,-99,-99
"1700","bleach","ruin",10,1,36,1,71,1.514,NA,NA,1,0,-99,-99
"1700","anger","decay",1,0,1,2,59,4.239,NA,NA,1,0,-99,-99
"1700","bleach","ruin",10,1,2,2,71,2.303,NA,NA,1,0,-99,-99
"1700","nerve","bumper",11,1,3,2,36,1.58,NA,NA,0,0,-99,-99
"1700","plant","worm",1,0,4,2,57,1.492,NA,NA,1,0,-99,-99
"1700","find","clown",2,0,5,2,42,1.402,NA,NA,1,0,-99,-99
"1700","need","faucet",11,1,6,2,40,1.76,NA,NA,0,0,-99,-99
"1700","capital","figure",3,0,7,2,31,1.747,NA,NA,1,0,-99,-99
"1700","rock","milk",10,1,8,2,55,1.698,NA,NA,0,0,-99,-99
"1700","caring","skirt",1,0,9,2,68,1.754,NA,NA,1,0,-99,-99
"1700","port","cinema",2,0,10,2,38,1.456,NA,NA,1,0,-99,-99
"1700","date","laugh",12,1,11,2,30,1.748,NA,NA,0,0,-99,-99
"1700","grip","beach",12,1,12,2,32,1.545,NA,NA,0,0,-99,-99
"1700","fan","feature",1,0,13,2,57,1.556,NA,NA,1,0,-99,-99
"1700","biology","temper",2,0,14,2,42,2.404,NA,NA,1,0,-99,-99
"1700","bias","sirloin",1,0,15,2,20,1.61,NA,NA,1,0,-99,-99
"1700","bacon","feud",3,0,16,2,62,1.622,NA,NA,1,0,-99,-99
"1700","process","joker",10,1,17,2,35,2.169,NA,NA,0,0,-99,-99
"1700","knock","otter",12,1,18,2,21,1.701,NA,NA,0,0,-99,-99
"1700","remind","foam",2,0,19,2,10,1.989,NA,NA,0,0,-99,-99
"1700","chicken","beet",1,0,20,2,60,1.788,NA,NA,1,0,-99,-99
"1700","climax","saucer",11,1,21,2,39,2.205,NA,NA,0,0,-99,-99
"1700","link","crisis",12,1,22,2,18,2.275,NA,NA,0,0,-99,-99
"1700","visit","glove",2,0,23,2,73,1.413,NA,NA,1,0,-99,-99
"1700","shrink","mafia",10,1,24,2,61,1.506,NA,NA,0,0,-99,-99
"1700","bullet","walkway",11,1,25,2,41,1.426,NA,NA,0,0,-99,-99
"1700","calf","annoy",2,0,26,2,43,2.124,NA,NA,1,0,-99,-99
"1700","copy","bedroom",3,0,27,2,30,2.563,NA,NA,1,0,-99,-99
"1700","glue","force",11,1,28,2,68,1.389,NA,NA,0,0,-99,-99
"1700","pork","emperor",10,1,29,2,57,1.666,NA,NA,0,0,-99,-99
"1700","fee","chowder",3,0,30,2,14,1.73,NA,NA,1,0,-99,-99
"1700","want","ascent",10,1,31,2,26,1.332,NA,NA,0,0,-99,-99
"1700","replace","roach",11,1,32,2,34,1.336,NA,NA,0,0,-99,-99
"1700","mill","feast",12,1,33,2,18,1.937,NA,NA,0,0,-99,-99
"1700","prison","loaf",3,0,34,2,38,1.69,NA,NA,1,0,-99,-99
"1700","pea","bathtub",12,1,35,2,39,1.963,NA,NA,0,0,-99,-99
"1700","smother","surgery",3,0,36,2,56,2.311,NA,NA,1,0,-99,-99
"1700","bleach","ruin",10,1,1,3,60,6.302,1,0.0277777777777778,1,0,0,-99
"1700","prison","loaf",3,0,2,3,36,4.187,2,0.0555555555555556,1,0,0,18.676
"1700","smother","surgery",3,0,3,3,59,1.595,3,0.0833333333333333,1,0,0,3.114
"1700","fan","feature",1,0,4,3,69,2.701,4,0.111111111111111,1,0,0,2.407
"1700","need","faucet",11,1,5,3,35,2.638,5,0.138888888888889,0,0,1,1.367
"1700","mill","feast",12,1,6,3,28,1.518,6,0.166666666666667,0,0,1,1.257
"1700","pea","bathtub",12,1,7,3,35,1.616,7,0.194444444444444,0,0,1,1.001
"1700","capital","figure",3,0,8,3,40,2.147,8,0.222222222222222,1,0,0,1.007
"1700","find","clown",2,0,9,3,23,1.395,9,0.25,1,0,0,1.331
"1700","glue","force",11,1,10,3,61,1.71,10,0.277777777777778,0,0,1,1.233
"1700","port","cinema",2,0,11,3,39,1.659,11,0.305555555555556,1,0,0,1.023
"1700","fee","chowder",3,0,12,3,18,1.651,12,0.333333333333333,1,0,0,0.89
"1700","process","joker",10,1,13,3,30,1.605,13,0.361111111111111,0,0,1,0.96
"1700","nerve","bumper",11,1,14,3,41,2.044,14,0.388888888888889,0,0,1,0.979
"1700","bacon","feud",3,0,15,3,65,1.353,15,0.416666666666667,1,0,0,0.899
"1700","biology","temper",2,0,16,3,43,1.373,16,0.444444444444444,1,0,0,1.037
"1700","plant","worm",1,0,17,3,61,1.659,17,0.472222222222222,1,0,0,0.983
"1700","date","laugh",12,1,18,3,42,1.266,18,0.5,0,0,1,0.763
"1700","link","crisis",12,1,19,3,22,2.507,19,0.527777777777778,0,0,1,0.877
"1700","want","ascent",10,1,20,3,27,1.973,20,0.555555555555556,0,0,1,0.822
"1700","pork","emperor",10,1,21,3,57,1.383,21,0.583333333333333,0,0,1,2.939
"1700","caring","skirt",1,0,22,3,66,2.253,22,0.611111111111111,1,0,0,1.366
"1700","copy","bedroom",3,0,23,3,35,1.811,23,0.638888888888889,1,0,0,0.937
"1700","knock","otter",12,1,24,3,26,2.675,24,0.666666666666667,0,0,1,1.862
"1700","bullet","walkway",11,1,25,3,36,1.415,25,0.694444444444444,0,0,1,5.231
"1700","bias","sirloin",1,0,26,3,20,1.708,26,0.722222222222222,1,0,0,0.947
"1700","shrink","mafia",10,1,27,3,59,1.489,27,0.75,0,0,1,0.72
"1700","rock","milk",10,1,28,3,43,1.557,28,0.777777777777778,0,0,1,1.029
"1700","anger","decay",1,0,29,3,34,1.536,29,0.805555555555556,1,0,0,1.115
"1700","climax","saucer",11,1,30,3,42,2.773,30,0.833333333333333,0,0,1,0.759
"1700","grip","beach",12,1,31,3,33,3.124,31,0.861111111111111,0,0,1,0.801
"1700","calf","annoy",2,0,32,3,22,1.693,32,0.888888888888889,1,0,0,0.9
"1700","chicken","beet",1,0,33,3,59,1.625,33,0.916666666666667,1,0,0,1.369
"1700","replace","roach",11,1,34,3,32,1.446,34,0.944444444444444,0,0,1,0.884
"1700","visit","glove",2,0,35,3,72,1.398,35,0.972222222222222,1,0,0,1.543
"1700","remind","foam",2,0,36,3,19,2.107,36,1,0,0,1,1.042
"1804","port","cinema",2,0,1,1,28,42.621,NA,NA,1,0,-99,-99
"1804","find","clown",2,0,2,1,39,23.099,NA,NA,1,0,-99,-99
"1804","glue","force",11,1,3,1,53,9.979,NA,NA,1,0,-99,-99
"1804","bullet","walkway",11,1,4,1,24,10.611,NA,NA,1,0,-99,-99
"1804","bleach","ruin",10,1,5,1,80,9.839,NA,NA,0,0,-99,-99
"1804","prison","loaf",3,0,6,1,2,7.094,NA,NA,0,0,-99,-99
"1804","biology","temper",2,0,7,1,31,6.175,NA,NA,1,0,-99,-99
"1804","mill","feast",12,1,8,1,33,8.161,NA,NA,1,0,-99,-99
"1804","caring","skirt",1,0,9,1,68,5.605,NA,NA,0,0,-99,-99
"1804","want","ascent",10,1,10,1,14,8.159,NA,NA,0,0,-99,-99
"1804","climax","saucer",11,1,11,1,19,5.903,NA,NA,1,0,-99,-99
"1804","visit","glove",2,0,12,1,60,8.644,NA,NA,1,0,-99,-99
"1804","knock","otter",12,1,13,1,62,6.289,NA,NA,0,0,-99,-99
"1804","smother","surgery",3,0,14,1,37,11.262,NA,NA,0,0,-99,-99
"1804","plant","worm",1,0,15,1,100,5.311,NA,NA,0,0,-99,-99
"1804","pea","bathtub",12,1,16,1,41,6.505,NA,NA,1,0,-99,-99
"1804","process","joker",10,1,17,1,52,8.188,NA,NA,0,0,-99,-99
"1804","shrink","mafia",10,1,18,1,1,9.277,NA,NA,1,0,-99,-99
"1804","fan","feature",1,0,19,1,80,5.565,NA,NA,0,0,-99,-99
"1804","rock","milk",10,1,20,1,75,7.849,NA,NA,0,0,-99,-99
"1804","fee","chowder",3,0,21,1,34,7.585,NA,NA,0,0,-99,-99
"1804","grip","beach",12,1,22,1,53,9.646,NA,NA,1,0,-99,-99
"1804","calf","annoy",2,0,23,1,56,6.48,NA,NA,0,0,-99,-99
"1804","bias","sirloin",1,0,24,1,16,5.201,NA,NA,1,0,-99,-99
"1804","date","laugh",12,1,25,1,64,9.788,NA,NA,1,0,-99,-99
"1804","need","faucet",11,1,26,1,15,7.895,NA,NA,1,0,-99,-99
"1804","bacon","feud",3,0,27,1,88,7.898,NA,NA,0,0,-99,-99
"1804","link","crisis",12,1,28,1,72,5.772,NA,NA,0,0,-99,-99
"1804","copy","bedroom",3,0,29,1,33,8.405,NA,NA,1,0,-99,-99
"1804","anger","decay",1,0,30,1,16,5.369,NA,NA,0,0,-99,-99
"1804","pork","emperor",10,1,31,1,6,7.585,NA,NA,0,0,-99,-99
"1804","remind","foam",2,0,32,1,27,6.462,NA,NA,1,0,-99,-99
"1804","chicken","beet",1,0,33,1,74,5.719,NA,NA,0,0,-99,-99
"1804","nerve","bumper",11,1,34,1,29,6.925,NA,NA,1,0,-99,-99
"1804","replace","roach",11,1,35,1,32,8.389,NA,NA,1,0,-99,-99
"1804","capital","figure",3,0,36,1,23,9.091,NA,NA,0,0,-99,-99
"1804","chicken","beet",1,0,1,2,62,11.766,NA,NA,0,0,-99,-99
"1804","port","cinema",2,0,2,2,46,3.726,NA,NA,1,0,-99,-99
"1804","mill","feast",12,1,3,2,8,16.85,NA,NA,1,0,-99,-99
"1804","prison","loaf",3,0,4,2,29,6.268,NA,NA,0,0,-99,-99
"1804","date","laugh",12,1,5,2,77,2.801,NA,NA,1,0,-99,-99
"1804","fan","feature",1,0,6,2,53,2.215,NA,NA,0,0,-99,-99
"1804","pea","bathtub",12,1,7,2,37,2.099,NA,NA,1,0,-99,-99
"1804","plant","worm",1,0,8,2,100,4.089,NA,NA,0,0,-99,-99
"1804","rock","milk",10,1,9,2,100,2.556,NA,NA,0,0,-99,-99
"1804","bleach","ruin",10,1,10,2,100,2.171,NA,NA,0,0,-99,-99
"1804","capital","figure",3,0,11,2,22,2.075,NA,NA,0,0,-99,-99
"1804","bias","sirloin",1,0,12,2,34,2.949,NA,NA,1,0,-99,-99
"1804","fee","chowder",3,0,13,2,13,3.398,NA,NA,0,0,-99,-99
"1804","process","joker",10,1,14,2,43,1.915,NA,NA,0,0,-99,-99
"1804","smother","surgery",3,0,15,2,38,3.125,NA,NA,0,0,-99,-99
"1804","bacon","feud",3,0,16,2,100,1.998,NA,NA,0,0,-99,-99
"1804","biology","temper",2,0,17,2,40,2.801,NA,NA,1,0,-99,-99
"1804","remind","foam",2,0,18,2,8,2.2,NA,NA,1,0,-99,-99
"1804","anger","decay",1,0,19,2,15,2.447,NA,NA,0,0,-99,-99
"1804","pork","emperor",10,1,20,2,65,1.844,NA,NA,0,0,-99,-99
"1804","need","faucet",11,1,21,2,32,2.067,NA,NA,1,0,-99,-99
"1804","grip","beach",12,1,22,2,41,3.056,NA,NA,1,0,-99,-99
"1804","want","ascent",10,1,23,2,39,2.429,NA,NA,0,0,-99,-99
"1804","glue","force",11,1,24,2,52,5.387,NA,NA,1,0,-99,-99
"1804","knock","otter",12,1,25,2,57,3.76,NA,NA,0,0,-99,-99
"1804","caring","skirt",1,0,26,2,87,2.314,NA,NA,0,0,-99,-99
"1804","nerve","bumper",11,1,27,2,6,2.454,NA,NA,1,0,-99,-99
"1804","calf","annoy",2,0,28,2,38,1.775,NA,NA,0,0,-99,-99
"1804","replace","roach",11,1,29,2,24,2.013,NA,NA,1,0,-99,-99
"1804","link","crisis",12,1,30,2,32,2.037,NA,NA,0,0,-99,-99
"1804","copy","bedroom",3,0,31,2,46,1.859,NA,NA,1,0,-99,-99
"1804","visit","glove",2,0,32,2,3,1.922,NA,NA,1,0,-99,-99
"1804","climax","saucer",11,1,33,2,2,1.929,NA,NA,1,0,-99,-99
"1804","shrink","mafia",10,1,34,2,75,1.704,NA,NA,1,0,-99,-99
"1804","find","clown",2,0,35,2,76,1.551,NA,NA,1,0,-99,-99
"1804","bullet","walkway",11,1,36,2,27,1.967,NA,NA,1,0,-99,-99
"1804","shrink","mafia",10,1,1,3,75,4.058,1,0.0277777777777778,1,0,0,-99
"1804","calf","annoy",2,0,2,3,35,6.68,2,0.0555555555555556,0,0,1,3.964
"1804","visit","glove",2,0,3,3,27,6.976,3,0.0833333333333333,1,0,0,7.226
"1804","port","cinema",2,0,4,3,27,2.329,4,0.111111111111111,1,0,0,4.742
"1804","glue","force",11,1,5,3,36,1.697,5,0.138888888888889,1,0,0,1.393
"1804","nerve","bumper",11,1,6,3,15,1.942,6,0.166666666666667,1,0,0,1.718
"1804","date","laugh",12,1,7,3,40,2.972,7,0.194444444444444,1,0,0,1.295
"1804","mill","feast",12,1,8,3,24,2.045,8,0.222222222222222,1,0,0,1.663
"1804","need","faucet",11,1,9,3,24,2.037,9,0.25,1,0,0,2.861
"1804","grip","beach",12,1,10,3,24,3.296,10,0.277777777777778,1,0,0,2.436
"1804","find","clown",2,0,11,3,87,4.027,11,0.305555555555556,1,0,0,1.695
"1804","plant","worm",1,0,12,3,99,2.265,12,0.333333333333333,0,0,1,1.643
"1804","climax","saucer",11,1,13,3,4,1.821,13,0.361111111111111,1,0,0,0.909
"1804","biology","temper",2,0,14,3,2,1.86,14,0.388888888888889,1,0,0,1.224
"1804","replace","roach",11,1,15,3,11,1.827,15,0.416666666666667,1,0,0,1.108
"1804","caring","skirt",1,0,16,3,87,1.904,16,0.444444444444444,0,0,1,1.542
"1804","pork","emperor",10,1,17,3,100,1.936,17,0.472222222222222,0,0,1,0.863
"1804","bacon","feud",3,0,18,3,99,2.509,18,0.5,0,0,1,0.846
"1804","bias","sirloin",1,0,19,3,16,1.989,19,0.527777777777778,1,0,0,1.2
"1804","pea","bathtub",12,1,20,3,8,2.111,20,0.555555555555556,1,0,0,1.173
"1804","rock","milk",10,1,21,3,100,2.213,21,0.583333333333333,0,0,1,3.91
"1804","bullet","walkway",11,1,22,3,22,8.856,22,0.611111111111111,1,0,0,0.945
"1804","remind","foam",2,0,23,3,16,1.997,23,0.638888888888889,1,0,0,1.079
"1804","copy","bedroom",3,0,24,3,28,1.68,24,0.666666666666667,1,0,0,0.917
"1804","link","crisis",12,1,25,3,29,1.456,25,0.694444444444444,0,0,1,0.794
"1804","capital","figure",3,0,26,3,22,2.522,26,0.722222222222222,0,0,1,2.892
"1804","want","ascent",10,1,27,3,29,1.873,27,0.75,0,0,1,3.097
"1804","prison","loaf",3,0,28,3,16,1.857,28,0.777777777777778,0,0,1,1.203
"1804","anger","decay",1,0,29,3,18,1.891,29,0.805555555555556,0,0,1,0.939
"1804","chicken","beet",1,0,30,3,55,3.856,30,0.833333333333333,0,0,1,1.254
"1804","process","joker",10,1,31,3,33,1.666,31,0.861111111111111,0,0,1,0.984
"1804","fee","chowder",3,0,32,3,1,1.875,32,0.888888888888889,0,0,1,1.269
"1804","knock","otter",12,1,33,3,37,2.122,33,0.916666666666667,0,0,1,0.984
"1804","bleach","ruin",10,1,34,3,28,2.969,34,0.944444444444444,0,0,1,1.109
"1804","fan","feature",1,0,35,3,55,1.834,35,0.972222222222222,0,0,1,5.63
"1804","smother","surgery",3,0,36,3,52,3,36,1,0,0,1,3.309
"1909","knock","otter",12,1,1,1,18,5.965,NA,NA,0,1,-99,-99
"1909","nerve","bumper",11,1,2,1,12,5.24,NA,NA,0,1,-99,-99
"1909","grip","beach",12,1,3,1,10,3.395,NA,NA,1,1,-99,-99
"1909","mill","feast",12,1,4,1,49,4.007,NA,NA,0,1,-99,-99
"1909","process","joker",10,1,5,1,10,5.18,NA,NA,0,1,-99,-99
"1909","capital","figure",3,0,6,1,49,2.749,NA,NA,1,1,-99,-99
"1909","anger","decay",1,0,7,1,17,6.899,NA,NA,1,1,-99,-99
"1909","copy","bedroom",3,0,8,1,16,3.53,NA,NA,1,1,-99,-99
"1909","chicken","beet",1,0,9,1,8,11.442,NA,NA,1,1,-99,-99
"1909","smother","surgery",3,0,10,1,11,3.64,NA,NA,1,1,-99,-99
"1909","replace","roach",11,1,11,1,18,3.077,NA,NA,0,1,-99,-99
"1909","pork","emperor",10,1,12,1,12,2.329,NA,NA,0,1,-99,-99
"1909","bacon","feud",3,0,13,1,6,2.924,NA,NA,0,1,-99,-99
"1909","glue","force",11,1,14,1,32,2.021,NA,NA,0,1,-99,-99
"1909","fan","feature",1,0,15,1,15,2.581,NA,NA,1,1,-99,-99
"1909","prison","loaf",3,0,16,1,14,3.294,NA,NA,0,1,-99,-99
"1909","want","ascent",10,1,17,1,13,1.974,NA,NA,1,1,-99,-99
"1909","caring","skirt",1,0,18,1,6,3.83,NA,NA,0,1,-99,-99
"1909","pea","bathtub",12,1,19,1,37,4.667,NA,NA,0,1,-99,-99
"1909","climax","saucer",11,1,20,1,11,2.831,NA,NA,1,1,-99,-99
"1909","visit","glove",2,0,21,1,7,3.414,NA,NA,1,1,-99,-99
"1909","rock","milk",10,1,22,1,10,5.057,NA,NA,1,1,-99,-99
"1909","port","cinema",2,0,23,1,41,2.684,NA,NA,1,1,-99,-99
"1909","calf","annoy",2,0,24,1,7,2.922,NA,NA,1,1,-99,-99
"1909","link","crisis",12,1,25,1,18,5.729,NA,NA,0,1,-99,-99
"1909","fee","chowder",3,0,26,1,3,5.359,NA,NA,0,1,-99,-99
"1909","bullet","walkway",11,1,27,1,38,15.046,NA,NA,1,1,-99,-99
"1909","need","faucet",11,1,28,1,10,2.107,NA,NA,0,1,-99,-99
"1909","date","laugh",12,1,29,1,38,20.722,NA,NA,1,1,-99,-99
"1909","shrink","mafia",10,1,30,1,23,2.46,NA,NA,1,1,-99,-99
"1909","biology","temper",2,0,31,1,14,2.04,NA,NA,1,1,-99,-99
"1909","find","clown",2,0,32,1,6,1.749,NA,NA,0,1,-99,-99
"1909","plant","worm",1,0,33,1,37,1.787,NA,NA,0,1,-99,-99
"1909","bleach","ruin",10,1,34,1,47,2.705,NA,NA,0,1,-99,-99
"1909","bias","sirloin",1,0,35,1,5,5.889,NA,NA,0,1,-99,-99
"1909","remind","foam",2,0,36,1,2,4.966,NA,NA,1,1,-99,-99
"1909","shrink","mafia",10,1,1,2,7,6.793,NA,NA,1,1,-99,-99
"1909","process","joker",10,1,2,2,7,2.397,NA,NA,0,1,-99,-99
"1909","bacon","feud",3,0,3,2,20,2.434,NA,NA,0,1,-99,-99
"1909","nerve","bumper",11,1,4,2,4,1.908,NA,NA,0,1,-99,-99
"1909","rock","milk",10,1,5,2,10,10.991,NA,NA,1,1,-99,-99
"1909","biology","temper",2,0,6,2,18,2.629,NA,NA,1,1,-99,-99
"1909","caring","skirt",1,0,7,2,10,1.716,NA,NA,0,1,-99,-99
"1909","knock","otter",12,1,8,2,9,1.909,NA,NA,0,1,-99,-99
"1909","grip","beach",12,1,9,2,10,2.269,NA,NA,1,1,-99,-99
"1909","need","faucet",11,1,10,2,8,1.646,NA,NA,0,1,-99,-99
"1909","calf","annoy",2,0,11,2,10,1.732,NA,NA,1,1,-99,-99
"1909","smother","surgery",3,0,12,2,10,1.87,NA,NA,1,1,-99,-99
"1909","anger","decay",1,0,13,2,10,1.898,NA,NA,1,1,-99,-99
"1909","copy","bedroom",3,0,14,2,6,2.247,NA,NA,1,1,-99,-99
"1909","link","crisis",12,1,15,2,9,2.131,NA,NA,0,1,-99,-99
"1909","replace","roach",11,1,16,2,3,3.262,NA,NA,0,1,-99,-99
"1909","fan","feature",1,0,17,2,6,1.473,NA,NA,1,1,-99,-99
"1909","fee","chowder",3,0,18,2,5,1.64,NA,NA,0,1,-99,-99
"1909","capital","figure",3,0,19,2,27,1.722,NA,NA,1,1,-99,-99
"1909","bleach","ruin",10,1,20,2,38,1.84,NA,NA,0,1,-99,-99
"1909","find","clown",2,0,21,2,20,1.241,NA,NA,0,1,-99,-99
"1909","plant","worm",1,0,22,2,34,1.26,NA,NA,0,1,-99,-99
"1909","climax","saucer",11,1,23,2,38,1.378,NA,NA,1,1,-99,-99
"1909","date","laugh",12,1,24,2,44,1.279,NA,NA,1,1,-99,-99
"1909","port","cinema",2,0,25,2,40,1.251,NA,NA,1,1,-99,-99
"1909","glue","force",11,1,26,2,20,1.73,NA,NA,0,1,-99,-99
"1909","bias","sirloin",1,0,27,2,18,1.127,NA,NA,0,1,-99,-99
"1909","remind","foam",2,0,28,2,10,1.262,NA,NA,1,1,-99,-99
"1909","bullet","walkway",11,1,29,2,46,1.423,NA,NA,1,1,-99,-99
"1909","prison","loaf",3,0,30,2,16,2.311,NA,NA,0,1,-99,-99
"1909","pork","emperor",10,1,31,2,11,1.115,NA,NA,0,1,-99,-99
"1909","want","ascent",10,1,32,2,4,1.93,NA,NA,1,1,-99,-99
"1909","mill","feast",12,1,33,2,10,1.392,NA,NA,0,1,-99,-99
"1909","pea","bathtub",12,1,34,2,43,1.522,NA,NA,0,1,-99,-99
"1909","visit","glove",2,0,35,2,9,1.398,NA,NA,1,1,-99,-99
"1909","chicken","beet",1,0,36,2,5,1.594,NA,NA,1,1,-99,-99
"1909","date","laugh",12,1,1,3,24,4.287,1,0.0277777777777778,1,1,1,-99
"1909","grip","beach",12,1,2,3,8,3.664,2,0.0555555555555556,1,1,1,3.031
"1909","copy","bedroom",3,0,3,3,6,1.735,3,0.0833333333333333,1,1,1,2.243
"1909","bullet","walkway",11,1,4,3,41,1.599,4,0.111111111111111,1,1,1,0.776
"1909","fan","feature",1,0,5,3,31,1.344,5,0.138888888888889,1,1,1,0.825
"1909","smother","surgery",3,0,6,3,36,1.831,6,0.166666666666667,1,1,1,0.794
"1909","capital","figure",3,0,7,3,53,2.795,7,0.194444444444444,1,1,1,0.763
"1909","remind","foam",2,0,8,3,38,1.41,8,0.222222222222222,1,1,1,0.838
"1909","want","ascent",10,1,9,3,5,1.727,9,0.25,1,1,1,0.744
"1909","shrink","mafia",10,1,10,3,12,1.604,10,0.277777777777778,1,1,1,0.946
"1909","calf","annoy",2,0,11,3,7,1.377,11,0.305555555555556,1,1,1,1.104
"1909","rock","milk",10,1,12,3,3,1.536,12,0.333333333333333,1,1,1,0.649
"1909","port","cinema",2,0,13,3,40,1.301,13,0.361111111111111,1,1,1,0.745
"1909","biology","temper",2,0,14,3,18,1.295,14,0.388888888888889,1,1,1,0.82
"1909","climax","saucer",11,1,15,3,15,1.275,15,0.416666666666667,1,1,1,0.807
"1909","visit","glove",2,0,16,3,16,2.212,16,0.444444444444444,1,1,1,0.681
"1909","anger","decay",1,0,17,3,13,1.67,17,0.472222222222222,1,1,1,0.697
"1909","chicken","beet",1,0,18,3,8,1.652,18,0.5,1,1,1,0.682
"1909","bias","sirloin",1,0,19,3,20,1.525,19,0.527777777777778,0,1,0,0.721
"1909","plant","worm",1,0,20,3,27,1.897,20,0.555555555555556,0,1,0,8.978
"1909","pea","bathtub",12,1,21,3,31,2.324,21,0.583333333333333,0,1,0,1.7
"1909","bleach","ruin",10,1,22,3,39,1.533,22,0.611111111111111,0,1,0,1.157
"1909","fee","chowder",3,0,23,3,36,1.172,23,0.638888888888889,0,1,0,0.777
"1909","caring","skirt",1,0,24,3,42,1.459,24,0.666666666666667,0,1,0,0.843
"1909","process","joker",10,1,25,3,38,1.435,25,0.694444444444444,0,1,0,0.873
"1909","glue","force",11,1,26,3,39,1.352,26,0.722222222222222,0,1,0,0.716
"1909","nerve","bumper",11,1,27,3,36,1.291,27,0.75,0,1,0,0.748
"1909","prison","loaf",3,0,28,3,33,1.499,28,0.777777777777778,0,1,0,1.29
"1909","link","crisis",12,1,29,3,30,1.347,29,0.805555555555556,0,1,0,0.658
"1909","mill","feast",12,1,30,3,51,1.404,30,0.833333333333333,0,1,0,0.765
"1909","need","faucet",11,1,31,3,24,3.967,31,0.861111111111111,0,1,0,0.716
"1909","bacon","feud",3,0,32,3,16,1.355,32,0.888888888888889,0,1,0,1.232
"1909","replace","roach",11,1,33,3,26,1.442,33,0.916666666666667,0,1,0,0.603
"1909","pork","emperor",10,1,34,3,11,2.859,34,0.944444444444444,0,1,0,0.762
"1909","find","clown",2,0,35,3,45,1.286,35,0.972222222222222,0,1,0,0.633
"1909","knock","otter",12,1,36,3,26,1.362,36,1,0,1,0,0.653
"1916","biology","temper",2,0,1,1,64,17.157,NA,NA,1,0,-99,-99
"1916","caring","skirt",1,0,2,1,98,14.092,NA,NA,0,0,-99,-99
"1916","copy","bedroom",3,0,3,1,26,11.305,NA,NA,1,0,-99,-99
"1916","need","faucet",11,1,4,1,99,9.826,NA,NA,0,0,-99,-99
"1916","link","crisis",12,1,5,1,41,6.457,NA,NA,0,0,-99,-99
"1916","port","cinema",2,0,6,1,9,11.354,NA,NA,1,0,-99,-99
"1916","mill","feast",12,1,7,1,68,7.16,NA,NA,1,0,-99,-99
"1916","remind","foam",2,0,8,1,70,11.77,NA,NA,0,0,-99,-99
"1916","shrink","mafia",10,1,9,1,87,5.098,NA,NA,0,0,-99,-99
"1916","fan","feature",1,0,10,1,35,10.591,NA,NA,1,0,-99,-99
"1916","calf","annoy",2,0,11,1,31,3.946,NA,NA,0,0,-99,-99
"1916","process","joker",10,1,12,1,67,3.85,NA,NA,1,0,-99,-99
"1916","capital","figure",3,0,13,1,32,5.193,NA,NA,1,0,-99,-99
"1916","nerve","bumper",11,1,14,1,72,6.755,NA,NA,0,0,-99,-99
"1916","glue","force",11,1,15,1,66,7.953,NA,NA,1,0,-99,-99
"1916","chicken","beet",1,0,16,1,12,3.954,NA,NA,1,0,-99,-99
"1916","grip","beach",12,1,17,1,77,2.249,NA,NA,1,0,-99,-99
"1916","rock","milk",10,1,18,1,64,6.625,NA,NA,0,0,-99,-99
"1916","plant","worm",1,0,19,1,5,5.059,NA,NA,0,0,-99,-99
"1916","pea","bathtub",12,1,20,1,79,3.467,NA,NA,0,0,-99,-99
"1916","date","laugh",12,1,21,1,92,8.825,NA,NA,0,0,-99,-99
"1916","bullet","walkway",11,1,22,1,81,3.378,NA,NA,1,0,-99,-99
"1916","climax","saucer",11,1,23,1,66,3.929,NA,NA,1,0,-99,-99
"1916","visit","glove",2,0,24,1,19,3.394,NA,NA,0,0,-99,-99
"1916","find","clown",2,0,25,1,45,4.332,NA,NA,0,0,-99,-99
"1916","bias","sirloin",1,0,26,1,5,3.46,NA,NA,0,0,-99,-99
"1916","bacon","feud",3,0,27,1,67,3.667,NA,NA,0,0,-99,-99
"1916","anger","decay",1,0,28,1,23,3.338,NA,NA,1,0,-99,-99
"1916","replace","roach",11,1,29,1,76,8.443,NA,NA,1,0,-99,-99
"1916","smother","surgery",3,0,30,1,13,2.867,NA,NA,0,0,-99,-99
"1916","pork","emperor",10,1,31,1,90,4.636,NA,NA,1,0,-99,-99
"1916","fee","chowder",3,0,32,1,86,7.547,NA,NA,1,0,-99,-99
"1916","want","ascent",10,1,33,1,96,5.452,NA,NA,1,0,-99,-99
"1916","prison","loaf",3,0,34,1,4,2.74,NA,NA,1,0,-99,-99
"1916","knock","otter",12,1,35,1,75,9.426,NA,NA,0,0,-99,-99
"1916","bleach","ruin",10,1,36,1,98,9.875,NA,NA,0,0,-99,-99
"1916","find","clown",2,0,1,2,10,5.744,NA,NA,0,0,-99,-99
"1916","chicken","beet",1,0,2,2,27,3.634,NA,NA,1,0,-99,-99
"1916","want","ascent",10,1,3,2,90,3.85,NA,NA,1,0,-99,-99
"1916","grip","beach",12,1,4,2,63,2.281,NA,NA,1,0,-99,-99
"1916","climax","saucer",11,1,5,2,93,3.099,NA,NA,1,0,-99,-99
"1916","replace","roach",11,1,6,2,59,3.035,NA,NA,1,0,-99,-99
"1916","biology","temper",2,0,7,2,34,4.195,NA,NA,1,0,-99,-99
"1916","bullet","walkway",11,1,8,2,70,2.323,NA,NA,1,0,-99,-99
"1916","bias","sirloin",1,0,9,2,16,2.515,NA,NA,0,0,-99,-99
"1916","fan","feature",1,0,10,2,88,2.884,NA,NA,1,0,-99,-99
"1916","need","faucet",11,1,11,2,67,3.491,NA,NA,0,0,-99,-99
"1916","bleach","ruin",10,1,12,2,94,2.898,NA,NA,0,0,-99,-99
"1916","glue","force",11,1,13,2,84,2.281,NA,NA,1,0,-99,-99
"1916","knock","otter",12,1,14,2,61,2.099,NA,NA,0,0,-99,-99
"1916","pork","emperor",10,1,15,2,82,2.834,NA,NA,1,0,-99,-99
"1916","fee","chowder",3,0,16,2,17,2.132,NA,NA,1,0,-99,-99
"1916","pea","bathtub",12,1,17,2,85,2.811,NA,NA,0,0,-99,-99
"1916","plant","worm",1,0,18,2,99,2.306,NA,NA,0,0,-99,-99
"1916","nerve","bumper",11,1,19,2,30,5.154,NA,NA,0,0,-99,-99
"1916","caring","skirt",1,0,20,2,14,4.163,NA,NA,0,0,-99,-99
"1916","rock","milk",10,1,21,2,75,3.915,NA,NA,0,0,-99,-99
"1916","port","cinema",2,0,22,2,66,4.403,NA,NA,1,0,-99,-99
"1916","process","joker",10,1,23,2,63,5.113,NA,NA,1,0,-99,-99
"1916","anger","decay",1,0,24,2,97,2.962,NA,NA,1,0,-99,-99
"1916","calf","annoy",2,0,25,2,21,4.018,NA,NA,0,0,-99,-99
"1916","remind","foam",2,0,26,2,16,2.826,NA,NA,0,0,-99,-99
"1916","capital","figure",3,0,27,2,29,3.787,NA,NA,1,0,-99,-99
"1916","mill","feast",12,1,28,2,91,4.129,NA,NA,1,0,-99,-99
"1916","smother","surgery",3,0,29,2,35,3.044,NA,NA,0,0,-99,-99
"1916","bacon","feud",3,0,30,2,88,3.499,NA,NA,0,0,-99,-99
"1916","link","crisis",12,1,31,2,77,3.322,NA,NA,0,0,-99,-99
"1916","visit","glove",2,0,32,2,13,2.675,NA,NA,0,0,-99,-99
"1916","shrink","mafia",10,1,33,2,73,10.106,NA,NA,0,0,-99,-99
"1916","copy","bedroom",3,0,34,2,24,2.067,NA,NA,1,0,-99,-99
"1916","prison","loaf",3,0,35,2,86,3.228,NA,NA,1,0,-99,-99
"1916","date","laugh",12,1,36,2,87,4.146,NA,NA,0,0,-99,-99
"1916","port","cinema",2,0,1,3,28,11.677,1,0.0277777777777778,1,0,0,-99
"1916","plant","worm",1,0,2,3,94,4.546,2,0.0555555555555556,0,0,1,11.745
"1916","date","laugh",12,1,3,3,82,6.789,3,0.0833333333333333,0,0,1,5.255
"1916","visit","glove",2,0,4,3,21,3.753,4,0.111111111111111,0,0,1,5.208
"1916","smother","surgery",3,0,5,3,34,4.435,5,0.138888888888889,0,0,1,4.59
"1916","remind","foam",2,0,6,3,23,4.785,6,0.166666666666667,0,0,1,1.463
"1916","calf","annoy",2,0,7,3,25,2.844,7,0.194444444444444,0,0,1,2.815
"1916","bias","sirloin",1,0,8,3,37,5.057,8,0.222222222222222,0,0,1,1.759
"1916","bleach","ruin",10,1,9,3,99,3.49,9,0.25,0,0,1,1.127
"1916","find","clown",2,0,10,3,25,7.563,10,0.277777777777778,0,0,1,2.503
"1916","replace","roach",11,1,11,3,82,4.3,11,0.305555555555556,1,0,0,2.775
"1916","pork","emperor",10,1,12,3,89,5.995,12,0.333333333333333,1,0,0,5.112
"1916","need","faucet",11,1,13,3,94,3.323,13,0.361111111111111,0,0,1,3.304
"1916","mill","feast",12,1,14,3,57,5.043,14,0.388888888888889,1,0,0,0.991
"1916","bullet","walkway",11,1,15,3,32,4.77,15,0.416666666666667,1,0,0,1.328
"1916","want","ascent",10,1,16,3,28,3.082,16,0.444444444444444,1,0,0,2.447
"1916","shrink","mafia",10,1,17,3,89,7.075,17,0.472222222222222,0,0,1,1.399
"1916","rock","milk",10,1,18,3,70,4.082,18,0.5,0,0,1,1.144
"1916","capital","figure",3,0,19,3,76,2.868,19,0.527777777777778,1,0,0,1.303
"1916","nerve","bumper",11,1,20,3,82,5.228,20,0.555555555555556,0,0,1,2.783
"1916","process","joker",10,1,21,3,33,4.547,21,0.583333333333333,1,0,0,2.335
"1916","bacon","feud",3,0,22,3,86,3.419,22,0.611111111111111,0,0,1,1.271
"1916","caring","skirt",1,0,23,3,77,3.74,23,0.638888888888889,0,0,1,1.271
"1916","knock","otter",12,1,24,3,70,5.827,24,0.666666666666667,0,0,1,0.959
"1916","pea","bathtub",12,1,25,3,70,4.852,25,0.694444444444444,0,0,1,1.015
"1916","link","crisis",12,1,26,3,88,2.498,26,0.722222222222222,0,0,1,1.239
"1916","glue","force",11,1,27,3,32,2.738,27,0.75,1,0,0,1.591
"1916","fee","chowder",3,0,28,3,63,4.036,28,0.777777777777778,1,0,0,10.047
"1916","fan","feature",1,0,29,3,100,3.835,29,0.805555555555556,1,0,0,10.103
"1916","chicken","beet",1,0,30,3,23,3.714,30,0.833333333333333,1,0,0,3.591
"1916","grip","beach",12,1,31,3,41,5.795,31,0.861111111111111,1,0,0,3.015
"1916","prison","loaf",3,0,32,3,33,3.082,32,0.888888888888889,1,0,0,2.551
"1916","climax","saucer",11,1,33,3,63,3.036,33,0.916666666666667,1,0,0,1.911
"1916","anger","decay",1,0,34,3,82,2.652,34,0.944444444444444,1,0,0,2.088
"1916","copy","bedroom",3,0,35,3,64,3.043,35,0.972222222222222,1,0,0,1.351
"1916","biology","temper",2,0,36,3,19,2.571,36,1,1,0,0,1.839
"1997","nerve","bumper",11,1,1,1,100,9.293,NA,NA,1,1,-99,-99
"1997","caring","skirt",1,0,2,1,100,5.287,NA,NA,0,1,-99,-99
"1997","pork","emperor",10,1,3,1,100,15.835,NA,NA,1,1,-99,-99
"1997","biology","temper",2,0,4,1,100,8.218,NA,NA,0,1,-99,-99
"1997","link","crisis",12,1,5,1,100,10.388,NA,NA,1,1,-99,-99
"1997","chicken","beet",1,0,6,1,100,6.729,NA,NA,0,1,-99,-99
"1997","visit","glove",2,0,7,1,100,5.726,NA,NA,0,1,-99,-99
"1997","fan","feature",1,0,8,1,100,5.929,NA,NA,0,1,-99,-99
"1997","anger","decay",1,0,9,1,100,5.622,NA,NA,0,1,-99,-99
"1997","rock","milk",10,1,10,1,100,5.582,NA,NA,0,1,-99,-99
"1997","pea","bathtub",12,1,11,1,100,6.959,NA,NA,1,1,-99,-99
"1997","bleach","ruin",10,1,12,1,100,5.864,NA,NA,1,1,-99,-99
"1997","climax","saucer",11,1,13,1,100,6.918,NA,NA,1,1,-99,-99
"1997","bias","sirloin",1,0,14,1,100,6.472,NA,NA,0,1,-99,-99
"1997","bacon","feud",3,0,15,1,100,6.144,NA,NA,0,1,-99,-99
"1997","shrink","mafia",10,1,16,1,100,6.961,NA,NA,1,1,-99,-99
"1997","copy","bedroom",3,0,17,1,100,7.024,NA,NA,0,1,-99,-99
"1997","want","ascent",10,1,18,1,100,9.035,NA,NA,1,1,-99,-99
"1997","port","cinema",2,0,19,1,100,9.89,NA,NA,0,1,-99,-99
"1997","remind","foam",2,0,20,1,100,5.649,NA,NA,0,1,-99,-99
"1997","date","laugh",12,1,21,1,100,5.739,NA,NA,1,1,-99,-99
"1997","process","joker",10,1,22,1,100,6.607,NA,NA,1,1,-99,-99
"1997","fee","chowder",3,0,23,1,100,5.363,NA,NA,0,1,-99,-99
"1997","calf","annoy",2,0,24,1,100,5.586,NA,NA,0,1,-99,-99
"1997","capital","figure",3,0,25,1,100,7.035,NA,NA,0,1,-99,-99
"1997","replace","roach",11,1,26,1,100,6.537,NA,NA,1,1,-99,-99
"1997","grip","beach",12,1,27,1,100,6.121,NA,NA,1,1,-99,-99
"1997","find","clown",2,0,28,1,100,6.055,NA,NA,0,1,-99,-99
"1997","knock","otter",12,1,29,1,100,5.485,NA,NA,1,1,-99,-99
"1997","need","faucet",11,1,30,1,100,6.543,NA,NA,1,1,-99,-99
"1997","plant","worm",1,0,31,1,100,5.941,NA,NA,0,1,-99,-99
"1997","glue","force",11,1,32,1,100,9.829,NA,NA,1,1,-99,-99
"1997","prison","loaf",3,0,33,1,100,6.056,NA,NA,1,1,-99,-99
"1997","mill","feast",12,1,34,1,100,6.613,NA,NA,1,1,-99,-99
"1997","smother","surgery",3,0,35,1,100,6.998,NA,NA,0,1,-99,-99
"1997","bullet","walkway",11,1,36,1,100,9.21,NA,NA,1,1,-99,-99
"1997","bias","sirloin",1,0,1,2,100,6.786,NA,NA,0,1,-99,-99
"1997","caring","skirt",1,0,2,2,100,5.962,NA,NA,0,1,-99,-99
"1997","find","clown",2,0,3,2,100,4.914,NA,NA,0,1,-99,-99
"1997","replace","roach",11,1,4,2,100,6.173,NA,NA,1,1,-99,-99
"1997","pork","emperor",10,1,5,2,100,6.422,NA,NA,1,1,-99,-99
"1997","nerve","bumper",11,1,6,2,100,5.644,NA,NA,1,1,-99,-99
"1997","visit","glove",2,0,7,2,100,5.695,NA,NA,0,1,-99,-99
"1997","process","joker",10,1,8,2,100,6.079,NA,NA,1,1,-99,-99
"1997","date","laugh",12,1,9,2,100,5.267,NA,NA,1,1,-99,-99
"1997","port","cinema",2,0,10,2,100,6.444,NA,NA,0,1,-99,-99
"1997","want","ascent",10,1,11,2,100,6.67,NA,NA,1,1,-99,-99
"1997","fee","chowder",3,0,12,2,100,4.963,NA,NA,0,1,-99,-99
"1997","bullet","walkway",11,1,13,2,100,7.555,NA,NA,1,1,-99,-99
"1997","climax","saucer",11,1,14,2,100,5.635,NA,NA,1,1,-99,-99
"1997","copy","bedroom",3,0,15,2,100,5.789,NA,NA,0,1,-99,-99
"1997","mill","feast",12,1,16,2,100,6.669,NA,NA,1,1,-99,-99
"1997","glue","force",11,1,17,2,100,5.538,NA,NA,1,1,-99,-99
"1997","anger","decay",1,0,18,2,100,4.394,NA,NA,0,1,-99,-99
"1997","prison","loaf",3,0,19,2,100,5.188,NA,NA,1,1,-99,-99
"1997","plant","worm",1,0,20,2,100,5.361,NA,NA,0,1,-99,-99
"1997","grip","beach",12,1,21,2,100,9.442,NA,NA,1,1,-99,-99
"1997","bleach","ruin",10,1,22,2,100,11.07,NA,NA,1,1,-99,-99
"1997","capital","figure",3,0,23,2,100,7.193,NA,NA,0,1,-99,-99
"1997","chicken","beet",1,0,24,2,100,6.075,NA,NA,0,1,-99,-99
"1997","biology","temper",2,0,25,2,100,7.087,NA,NA,0,1,-99,-99
"1997","rock","milk",10,1,26,2,100,4.5,NA,NA,0,1,-99,-99
"1997","shrink","mafia",10,1,27,2,100,9.392,NA,NA,1,1,-99,-99
"1997","fan","feature",1,0,28,2,100,5.411,NA,NA,0,1,-99,-99
"1997","knock","otter",12,1,29,2,100,4.694,NA,NA,1,1,-99,-99
"1997","link","crisis",12,1,30,2,100,6.04,NA,NA,1,1,-99,-99
"1997","smother","surgery",3,0,31,2,100,6.51,NA,NA,0,1,-99,-99
"1997","need","faucet",11,1,32,2,100,5.715,NA,NA,1,1,-99,-99
"1997","bacon","feud",3,0,33,2,100,6.007,NA,NA,0,1,-99,-99
"1997","remind","foam",2,0,34,2,100,6.235,NA,NA,0,1,-99,-99
"1997","calf","annoy",2,0,35,2,100,5.883,NA,NA,0,1,-99,-99
"1997","pea","bathtub",12,1,36,2,100,5.872,NA,NA,1,1,-99,-99
"1997","bias","sirloin",1,0,1,3,100,4.705,1,0.0277777777777778,0,1,0,-99
"1997","climax","saucer",11,1,2,3,100,3.03,2,0.0555555555555556,1,1,1,17.573
"1997","smother","surgery",3,0,3,3,100,3.84,3,0.0833333333333333,0,1,0,1.053
"1997","capital","figure",3,0,4,3,100,2.313,4,0.111111111111111,0,1,0,2.988
"1997","shrink","mafia",10,1,5,3,100,2.681,5,0.138888888888889,1,1,1,0.928
"1997","nerve","bumper",11,1,6,3,100,2.326,6,0.166666666666667,1,1,1,0.847
"1997","knock","otter",12,1,7,3,100,2.05,7,0.194444444444444,1,1,1,1.059
"1997","bacon","feud",3,0,8,3,100,2.176,8,0.222222222222222,0,1,0,0.837
"1997","find","clown",2,0,9,3,100,2.442,9,0.25,0,1,0,0.892
"1997","rock","milk",10,1,10,3,100,14.497,10,0.277777777777778,0,1,0,1.055
"1997","replace","roach",11,1,11,3,100,2.527,11,0.305555555555556,1,1,1,0.855
"1997","process","joker",10,1,12,3,100,1.78,12,0.333333333333333,1,1,1,0.806
"1997","glue","force",11,1,13,3,100,2.065,13,0.361111111111111,1,1,1,0.66
"1997","port","cinema",2,0,14,3,100,2.139,14,0.388888888888889,0,1,0,0.741
"1997","bullet","walkway",11,1,15,3,100,2.295,15,0.416666666666667,1,1,1,0.846
"1997","link","crisis",12,1,16,3,100,1.908,16,0.444444444444444,1,1,1,0.908
"1997","plant","worm",1,0,17,3,100,1.79,17,0.472222222222222,0,1,0,0.717
"1997","grip","beach",12,1,18,3,100,2.682,18,0.5,1,1,1,0.628
"1997","biology","temper",2,0,19,3,100,2.286,19,0.527777777777778,0,1,0,1.14
"1997","fan","feature",1,0,20,3,100,1.75,20,0.555555555555556,0,1,0,0.706
"1997","date","laugh",12,1,21,3,100,4.838,21,0.583333333333333,1,1,1,0.734
"1997","want","ascent",10,1,22,3,100,2.104,22,0.611111111111111,1,1,1,0.855
"1997","anger","decay",1,0,23,3,100,3.642,23,0.638888888888889,0,1,0,0.743
"1997","pea","bathtub",12,1,24,3,100,12.854,24,0.666666666666667,1,1,1,0.844
"1997","fee","chowder",3,0,25,3,100,23.773,25,0.694444444444444,0,1,0,0.856
"1997","remind","foam",2,0,26,3,100,2.21,26,0.722222222222222,0,1,0,0.807
"1997","calf","annoy",2,0,27,3,100,2.047,27,0.75,0,1,0,0.846
"1997","bleach","ruin",10,1,28,3,100,2.345,28,0.777777777777778,1,1,1,0.861
"1997","mill","feast",12,1,29,3,100,1.988,29,0.805555555555556,1,1,1,0.701
"1997","visit","glove",2,0,30,3,100,1.985,30,0.833333333333333,0,1,0,0.82
"1997","chicken","beet",1,0,31,3,100,2.037,31,0.861111111111111,0,1,0,0.662
"1997","pork","emperor",10,1,32,3,100,2.014,32,0.888888888888889,1,1,1,0.773
"1997","copy","bedroom",3,0,33,3,100,7.537,33,0.916666666666667,0,1,0,0.991
"1997","caring","skirt",1,0,34,3,100,2.218,34,0.944444444444444,0,1,0,1.033
"1997","need","faucet",11,1,35,3,100,1.856,35,0.972222222222222,1,1,1,0.717
"1997","prison","loaf",3,0,36,3,100,2.619,36,1,1,1,1,1.365
"2009","visit","glove",2,0,1,1,53,4.426,NA,NA,0,1,-99,-99
"2009","remind","foam",2,0,2,1,23,1.588,NA,NA,0,1,-99,-99
"2009","replace","roach",11,1,3,1,32,1.94,NA,NA,0,1,-99,-99
"2009","caring","skirt",1,0,4,1,59,2.022,NA,NA,0,1,-99,-99
"2009","link","crisis",12,1,5,1,60,2.426,NA,NA,0,1,-99,-99
"2009","mill","feast",12,1,6,1,39,1.628,NA,NA,0,1,-99,-99
"2009","pork","emperor",10,1,7,1,35,2.232,NA,NA,0,1,-99,-99
"2009","find","clown",2,0,8,1,35,13.914,NA,NA,1,1,-99,-99
"2009","plant","worm",1,0,9,1,52,3.298,NA,NA,0,1,-99,-99
"2009","chicken","beet",1,0,10,1,35,2.302,NA,NA,0,1,-99,-99
"2009","shrink","mafia",10,1,11,1,48,1.714,NA,NA,1,1,-99,-99
"2009","pea","bathtub",12,1,12,1,38,2.576,NA,NA,0,1,-99,-99
"2009","rock","milk",10,1,13,1,32,1.936,NA,NA,1,1,-99,-99
"2009","bullet","walkway",11,1,14,1,52,1.686,NA,NA,1,1,-99,-99
"2009","date","laugh",12,1,15,1,32,2.346,NA,NA,1,1,-99,-99
"2009","prison","loaf",3,0,16,1,38,2.718,NA,NA,1,1,-99,-99
"2009","need","faucet",11,1,17,1,37,2.392,NA,NA,1,1,-99,-99
"2009","anger","decay",1,0,18,1,27,1.636,NA,NA,1,1,-99,-99
"2009","bias","sirloin",1,0,19,1,30,2.18,NA,NA,1,1,-99,-99
"2009","fee","chowder",3,0,20,1,63,2.002,NA,NA,0,1,-99,-99
"2009","grip","beach",12,1,21,1,60,2.3,NA,NA,0,1,-99,-99
"2009","want","ascent",10,1,22,1,45,1.29,NA,NA,1,1,-99,-99
"2009","knock","otter",12,1,23,1,54,1.98,NA,NA,0,1,-99,-99
"2009","calf","annoy",2,0,24,1,32,2.66,NA,NA,0,1,-99,-99
"2009","nerve","bumper",11,1,25,1,56,3.132,NA,NA,1,1,-99,-99
"2009","bleach","ruin",10,1,26,1,20,1.7,NA,NA,1,1,-99,-99
"2009","bacon","feud",3,0,27,1,26,2.17,NA,NA,0,1,-99,-99
"2009","process","joker",10,1,28,1,38,5.704,NA,NA,1,1,-99,-99
"2009","port","cinema",2,0,29,1,42,1.902,NA,NA,1,1,-99,-99
"2009","capital","figure",3,0,30,1,55,1.866,NA,NA,0,1,-99,-99
"2009","copy","bedroom",3,0,31,1,45,2.268,NA,NA,1,1,-99,-99
"2009","biology","temper",2,0,32,1,20,1.784,NA,NA,0,1,-99,-99
"2009","smother","surgery",3,0,33,1,40,2.37,NA,NA,1,1,-99,-99
"2009","climax","saucer",11,1,34,1,41,4.07,NA,NA,1,1,-99,-99
"2009","glue","force",11,1,35,1,54,1.844,NA,NA,0,1,-99,-99
"2009","fan","feature",1,0,36,1,11,2.45,NA,NA,1,1,-99,-99
"2009","pork","emperor",10,1,1,2,37,4.842,NA,NA,0,1,-99,-99
"2009","mill","feast",12,1,2,2,37,18.206,NA,NA,0,1,-99,-99
"2009","bullet","walkway",11,1,3,2,35,5.324,NA,NA,1,1,-99,-99
"2009","find","clown",2,0,4,2,31,3.052,NA,NA,1,1,-99,-99
"2009","caring","skirt",1,0,5,2,39,2.754,NA,NA,0,1,-99,-99
"2009","need","faucet",11,1,6,2,37,4.424,NA,NA,1,1,-99,-99
"2009","nerve","bumper",11,1,7,2,33,4.21,NA,NA,1,1,-99,-99
"2009","glue","force",11,1,8,2,34,2.828,NA,NA,0,1,-99,-99
"2009","prison","loaf",3,0,9,2,33,3.584,NA,NA,1,1,-99,-99
"2009","bacon","feud",3,0,10,2,35,3.02,NA,NA,0,1,-99,-99
"2009","bias","sirloin",1,0,11,2,37,6.772,NA,NA,1,1,-99,-99
"2009","remind","foam",2,0,12,2,43,3.316,NA,NA,0,1,-99,-99
"2009","rock","milk",10,1,13,2,43,4.156,NA,NA,1,1,-99,-99
"2009","pea","bathtub",12,1,14,2,42,3.37,NA,NA,0,1,-99,-99
"2009","replace","roach",11,1,15,2,42,5.736,NA,NA,0,1,-99,-99
"2009","fan","feature",1,0,16,2,45,6.078,NA,NA,1,1,-99,-99
"2009","capital","figure",3,0,17,2,40,3.312,NA,NA,0,1,-99,-99
"2009","climax","saucer",11,1,18,2,42,3.084,NA,NA,1,1,-99,-99
"2009","plant","worm",1,0,19,2,35,3.406,NA,NA,0,1,-99,-99
"2009","fee","chowder",3,0,20,2,46,4.396,NA,NA,0,1,-99,-99
"2009","grip","beach",12,1,21,2,53,3.502,NA,NA,0,1,-99,-99
"2009","knock","otter",12,1,22,2,52,3.51,NA,NA,0,1,-99,-99
"2009","chicken","beet",1,0,23,2,35,2.87,NA,NA,0,1,-99,-99
"2009","want","ascent",10,1,24,2,33,4.084,NA,NA,1,1,-99,-99
"2009","visit","glove",2,0,25,2,40,3.122,NA,NA,0,1,-99,-99
"2009","biology","temper",2,0,26,2,35,3.708,NA,NA,0,1,-99,-99
"2009","port","cinema",2,0,27,2,50,5.02,NA,NA,1,1,-99,-99
"2009","calf","annoy",2,0,28,2,46,4.08,NA,NA,0,1,-99,-99
"2009","bleach","ruin",10,1,29,2,41,3.446,NA,NA,1,1,-99,-99
"2009","process","joker",10,1,30,2,49,4.522,NA,NA,1,1,-99,-99
"2009","copy","bedroom",3,0,31,2,46,5.872,NA,NA,1,1,-99,-99
"2009","anger","decay",1,0,32,2,34,3.922,NA,NA,1,1,-99,-99
"2009","smother","surgery",3,0,33,2,40,3.722,NA,NA,1,1,-99,-99
"2009","date","laugh",12,1,34,2,41,5.324,NA,NA,1,1,-99,-99
"2009","link","crisis",12,1,35,2,42,6.612,NA,NA,0,1,-99,-99
"2009","shrink","mafia",10,1,36,2,51,4.972,NA,NA,1,1,-99,-99
"2009","fee","chowder",3,0,1,3,44,9.174,1,0.0277777777777778,0,1,0,-99
"2009","plant","worm",1,0,2,3,40,7.014,2,0.0555555555555556,0,1,0,23.052
"2009","grip","beach",12,1,3,3,33,14.378,3,0.0833333333333333,0,1,0,2.046
"2009","biology","temper",2,0,4,3,37,21.512,4,0.111111111111111,0,1,0,0.904
"2009","caring","skirt",1,0,5,3,32,11.442,5,0.138888888888889,0,1,0,0.87
"2009","capital","figure",3,0,6,3,35,13.846,6,0.166666666666667,0,1,0,0.918
"2009","knock","otter",12,1,7,3,41,10.514,7,0.194444444444444,0,1,0,1.146
"2009","replace","roach",11,1,8,3,35,10.786,8,0.222222222222222,0,1,0,0.808
"2009","pork","emperor",10,1,9,3,33,3.732,9,0.25,0,1,0,0.838
"2009","visit","glove",2,0,10,3,38,18.546,10,0.277777777777778,0,1,0,0.96
"2009","chicken","beet",1,0,11,3,30,7.042,11,0.305555555555556,0,1,0,1.102
"2009","bacon","feud",3,0,12,3,29,33.784,12,0.333333333333333,0,1,0,0.918
"2009","link","crisis",12,1,13,3,32,10.386,13,0.361111111111111,0,1,0,0.862
"2009","mill","feast",12,1,14,3,37,4.534,14,0.388888888888889,0,1,0,2.334
"2009","remind","foam",2,0,15,3,24,6.238,15,0.416666666666667,0,1,0,0.854
"2009","calf","annoy",2,0,16,3,28,6.618,16,0.444444444444444,0,1,0,0.852
"2009","pea","bathtub",12,1,17,3,29,10.602,17,0.472222222222222,0,1,0,0.806
"2009","glue","force",11,1,18,3,30,8.626,18,0.5,0,1,0,0.95
"2009","port","cinema",2,0,19,3,32,4.14,19,0.527777777777778,1,1,1,1.262
"2009","smother","surgery",3,0,20,3,32,189.59,20,0.555555555555556,1,1,1,6.8
"2009","copy","bedroom",3,0,21,3,42,7.898,21,0.583333333333333,1,1,1,1.524
"2009","date","laugh",12,1,22,3,34,7.172,22,0.611111111111111,1,1,1,1.496
"2009","climax","saucer",11,1,23,3,32,68.39,23,0.638888888888889,1,1,1,0.846
"2009","fan","feature",1,0,24,3,32,6.786,24,0.666666666666667,1,1,1,1.028
"2009","find","clown",2,0,25,3,37,5.316,25,0.694444444444444,1,1,1,0.966
"2009","shrink","mafia",10,1,26,3,41,9.498,26,0.722222222222222,1,1,1,0.832
"2009","bleach","ruin",10,1,27,3,33,5.596,27,0.75,1,1,1,0.774
"2009","process","joker",10,1,28,3,37,4.63,28,0.777777777777778,1,1,1,0.678
"2009","bullet","walkway",11,1,29,3,38,7,29,0.805555555555556,1,1,1,1.24
"2009","want","ascent",10,1,30,3,58,3.938,30,0.833333333333333,1,1,1,0.79
"2009","prison","loaf",3,0,31,3,42,7.404,31,0.861111111111111,1,1,1,2.614
"2009","nerve","bumper",11,1,32,3,38,6.562,32,0.888888888888889,1,1,1,1.048
"2009","bias","sirloin",1,0,33,3,42,4.212,33,0.916666666666667,1,1,1,0.862
"2009","anger","decay",1,0,34,3,40,4.828,34,0.944444444444444,1,1,1,0.878
"2009","need","faucet",11,1,35,3,36,4.48,35,0.972222222222222,1,1,1,7.692
"2009","rock","milk",10,1,36,3,35,4.41,36,1,1,1,1,1.046
"2085","mill","feast",12,1,1,1,70,9.121,NA,NA,0,1,-99,-99
"2085","caring","skirt",1,0,2,1,51,10.751,NA,NA,1,1,-99,-99
"2085","date","laugh",12,1,3,1,89,10.805,NA,NA,0,1,-99,-99
"2085","plant","worm",1,0,4,1,74,5.977,NA,NA,1,1,-99,-99
"2085","biology","temper",2,0,5,1,54,8.088,NA,NA,1,1,-99,-99
"2085","bleach","ruin",10,1,6,1,90,5.41,NA,NA,0,1,-99,-99
"2085","bacon","feud",3,0,7,1,67,5.47,NA,NA,1,1,-99,-99
"2085","grip","beach",12,1,8,1,87,5.52,NA,NA,0,1,-99,-99
"2085","replace","roach",11,1,9,1,79,5.932,NA,NA,0,1,-99,-99
"2085","port","cinema",2,0,10,1,60,5.276,NA,NA,1,1,-99,-99
"2085","anger","decay",1,0,11,1,63,6.122,NA,NA,1,1,-99,-99
"2085","visit","glove",2,0,12,1,58,4.71,NA,NA,1,1,-99,-99
"2085","remind","foam",2,0,13,1,57,7.772,NA,NA,1,1,-99,-99
"2085","bullet","walkway",11,1,14,1,80,6.863,NA,NA,0,1,-99,-99
"2085","climax","saucer",11,1,15,1,81,6.172,NA,NA,0,1,-99,-99
"2085","shrink","mafia",10,1,16,1,90,8.554,NA,NA,1,1,-99,-99
"2085","copy","bedroom",3,0,17,1,60,9.183,NA,NA,1,1,-99,-99
"2085","want","ascent",10,1,18,1,77,9.285,NA,NA,0,1,-99,-99
"2085","find","clown",2,0,19,1,60,6.594,NA,NA,0,1,-99,-99
"2085","nerve","bumper",11,1,20,1,72,8.746,NA,NA,0,1,-99,-99
"2085","fee","chowder",3,0,21,1,67,6.405,NA,NA,1,1,-99,-99
"2085","fan","feature",1,0,22,1,69,5.086,NA,NA,1,1,-99,-99
"2085","pork","emperor",10,1,23,1,85,5.373,NA,NA,1,1,-99,-99
"2085","knock","otter",12,1,24,1,90,5.066,NA,NA,0,1,-99,-99
"2085","need","faucet",11,1,25,1,85,7.413,NA,NA,0,1,-99,-99
"2085","smother","surgery",3,0,26,1,63,7.147,NA,NA,1,1,-99,-99
"2085","link","crisis",12,1,27,1,89,5.219,NA,NA,0,1,-99,-99
"2085","process","joker",10,1,28,1,87,5.135,NA,NA,0,1,-99,-99
"2085","capital","figure",3,0,29,1,61,6.79,NA,NA,1,1,-99,-99
"2085","glue","force",11,1,30,1,81,3.934,NA,NA,0,1,-99,-99
"2085","rock","milk",10,1,31,1,90,6.106,NA,NA,1,1,-99,-99
"2085","pea","bathtub",12,1,32,1,91,9.38,NA,NA,0,1,-99,-99
"2085","prison","loaf",3,0,33,1,58,4.619,NA,NA,0,1,-99,-99
"2085","chicken","beet",1,0,34,1,55,12.426,NA,NA,0,1,-99,-99
"2085","calf","annoy",2,0,35,1,54,4.701,NA,NA,1,1,-99,-99
"2085","bias","sirloin",1,0,36,1,53,6.638,NA,NA,1,1,-99,-99
"2085","fan","feature",1,0,1,2,72,7.956,NA,NA,1,1,-99,-99
"2085","bacon","feud",3,0,2,2,62,7.106,NA,NA,1,1,-99,-99
"2085","date","laugh",12,1,3,2,99,3.197,NA,NA,0,1,-99,-99
"2085","find","clown",2,0,4,2,68,3.493,NA,NA,0,1,-99,-99
"2085","bullet","walkway",11,1,5,2,91,2.867,NA,NA,0,1,-99,-99
"2085","want","ascent",10,1,6,2,87,3.484,NA,NA,0,1,-99,-99
"2085","copy","bedroom",3,0,7,2,61,4.332,NA,NA,1,1,-99,-99
"2085","plant","worm",1,0,8,2,83,3.376,NA,NA,1,1,-99,-99
"2085","pea","bathtub",12,1,9,2,94,2.027,NA,NA,0,1,-99,-99
"2085","fee","chowder",3,0,10,2,66,2.182,NA,NA,1,1,-99,-99
"2085","pork","emperor",10,1,11,2,87,3.291,NA,NA,1,1,-99,-99
"2085","bias","sirloin",1,0,12,2,67,2.273,NA,NA,1,1,-99,-99
"2085","port","cinema",2,0,13,2,68,4.758,NA,NA,1,1,-99,-99
"2085","bleach","ruin",10,1,14,2,91,2.578,NA,NA,0,1,-99,-99
"2085","smother","surgery",3,0,15,2,65,2.857,NA,NA,1,1,-99,-99
"2085","chicken","beet",1,0,16,2,75,2.833,NA,NA,0,1,-99,-99
"2085","biology","temper",2,0,17,2,65,2.616,NA,NA,1,1,-99,-99
"2085","glue","force",11,1,18,2,84,3.965,NA,NA,0,1,-99,-99
"2085","rock","milk",10,1,19,2,93,2.031,NA,NA,1,1,-99,-99
"2085","link","crisis",12,1,20,2,90,2.513,NA,NA,0,1,-99,-99
"2085","mill","feast",12,1,21,2,91,2.218,NA,NA,0,1,-99,-99
"2085","grip","beach",12,1,22,2,85,4.459,NA,NA,0,1,-99,-99
"2085","process","joker",10,1,23,2,90,2.724,NA,NA,0,1,-99,-99
"2085","knock","otter",12,1,24,2,89,2.442,NA,NA,0,1,-99,-99
"2085","replace","roach",11,1,25,2,95,2.299,NA,NA,0,1,-99,-99
"2085","anger","decay",1,0,26,2,78,2.056,NA,NA,1,1,-99,-99
"2085","remind","foam",2,0,27,2,64,4.364,NA,NA,1,1,-99,-99
"2085","need","faucet",11,1,28,2,90,2.893,NA,NA,0,1,-99,-99
"2085","caring","skirt",1,0,29,2,60,2.115,NA,NA,1,1,-99,-99
"2085","capital","figure",3,0,30,2,73,2.44,NA,NA,1,1,-99,-99
"2085","prison","loaf",3,0,31,2,70,2.333,NA,NA,0,1,-99,-99
"2085","visit","glove",2,0,32,2,61,3.136,NA,NA,1,1,-99,-99
"2085","calf","annoy",2,0,33,2,66,4.239,NA,NA,1,1,-99,-99
"2085","shrink","mafia",10,1,34,2,83,1.978,NA,NA,1,1,-99,-99
"2085","climax","saucer",11,1,35,2,86,3.354,NA,NA,0,1,-99,-99
"2085","nerve","bumper",11,1,36,2,87,2.017,NA,NA,0,1,-99,-99
"2085","fan","feature",1,0,1,3,86,9.272,1,0.0277777777777778,1,1,1,-99
"2085","shrink","mafia",10,1,2,3,89,4.648,2,0.0555555555555556,1,1,1,4.467
"2085","chicken","beet",1,0,3,3,90,9.347,3,0.0833333333333333,0,1,0,2.602
"2085","pea","bathtub",12,1,4,3,95,5.102,4,0.111111111111111,0,1,0,1.251
"2085","bleach","ruin",10,1,5,3,98,5.47,5,0.138888888888889,0,1,0,4.674
"2085","bullet","walkway",11,1,6,3,98,9.584,6,0.166666666666667,0,1,0,0.799
"2085","remind","foam",2,0,7,3,71,4.018,7,0.194444444444444,1,1,1,2.053
"2085","copy","bedroom",3,0,8,3,82,5.863,8,0.222222222222222,1,1,1,2.703
"2085","glue","force",11,1,9,3,94,2.528,9,0.25,0,1,0,1.143
"2085","climax","saucer",11,1,10,3,96,3.944,10,0.277777777777778,0,1,0,3.145
"2085","anger","decay",1,0,11,3,92,3.241,11,0.305555555555556,1,1,1,0.816
"2085","nerve","bumper",11,1,12,3,94,4.186,12,0.333333333333333,0,1,0,2.03
"2085","plant","worm",1,0,13,3,100,3.402,13,0.361111111111111,1,1,1,1.447
"2085","fee","chowder",3,0,14,3,78,3.936,14,0.388888888888889,1,1,1,1.575
"2085","date","laugh",12,1,15,3,100,3.013,15,0.416666666666667,0,1,0,1.129
"2085","process","joker",10,1,16,3,95,7.007,16,0.444444444444444,0,1,0,0.94
"2085","want","ascent",10,1,17,3,94,2.889,17,0.472222222222222,0,1,0,1.422
"2085","link","crisis",12,1,18,3,96,2.634,18,0.5,0,1,0,1.153
"2085","need","faucet",11,1,19,3,94,3.556,19,0.527777777777778,0,1,0,1.11
"2085","knock","otter",12,1,20,3,88,4.114,20,0.555555555555556,0,1,0,0.893
"2085","calf","annoy",2,0,21,3,79,5.398,21,0.583333333333333,1,1,1,0.768
"2085","rock","milk",10,1,22,3,100,3.058,22,0.611111111111111,1,1,1,0.878
"2085","bias","sirloin",1,0,23,3,77,3.966,23,0.638888888888889,1,1,1,2.821
"2085","mill","feast",12,1,24,3,90,4.823,24,0.666666666666667,0,1,0,0.933
"2085","grip","beach",12,1,25,3,91,4.087,25,0.694444444444444,0,1,0,1.014
"2085","smother","surgery",3,0,26,3,91,3.248,26,0.722222222222222,1,1,1,0.781
"2085","bacon","feud",3,0,27,3,86,2.832,27,0.75,1,1,1,0.996
"2085","replace","roach",11,1,28,3,94,2.924,28,0.777777777777778,0,1,0,0.943
"2085","caring","skirt",1,0,29,3,81,2.789,29,0.805555555555556,1,1,1,0.711
"2085","pork","emperor",10,1,30,3,84,4.887,30,0.833333333333333,1,1,1,0.752
"2085","prison","loaf",3,0,31,3,92,6.422,31,0.861111111111111,0,1,0,0.978
"2085","biology","temper",2,0,32,3,83,4.291,32,0.888888888888889,1,1,1,1.899
"2085","visit","glove",2,0,33,3,78,4.315,33,0.916666666666667,1,1,1,2.348
"2085","capital","figure",3,0,34,3,88,2.596,34,0.944444444444444,1,1,1,0.885
"2085","port","cinema",2,0,35,3,80,5.351,35,0.972222222222222,1,1,1,0.917
"2085","find","clown",2,0,36,3,84,3.945,36,1,0,1,0,1.007
"2231","bleach","ruin",10,1,1,1,40,10.648,NA,NA,0,1,-99,-99
"2231","date","laugh",12,1,2,1,20,8.3,NA,NA,0,1,-99,-99
"2231","need","faucet",11,1,3,1,15,9.168,NA,NA,0,1,-99,-99
"2231","visit","glove",2,0,4,1,40,10.19,NA,NA,0,1,-99,-99
"2231","fee","chowder",3,0,5,1,8,9.425,NA,NA,1,1,-99,-99
"2231","find","clown",2,0,6,1,25,9.04,NA,NA,1,1,-99,-99
"2231","rock","milk",10,1,7,1,45,8.863,NA,NA,1,1,-99,-99
"2231","replace","roach",11,1,8,1,55,9.705,NA,NA,0,1,-99,-99
"2231","chicken","beet",1,0,9,1,70,8.234,NA,NA,0,1,-99,-99
"2231","bias","sirloin",1,0,10,1,35,10.72,NA,NA,0,1,-99,-99
"2231","nerve","bumper",11,1,11,1,10,8.42,NA,NA,1,1,-99,-99
"2231","shrink","mafia",10,1,12,1,40,16.831,NA,NA,1,1,-99,-99
"2231","copy","bedroom",3,0,13,1,45,11.194,NA,NA,0,1,-99,-99
"2231","mill","feast",12,1,14,1,60,11.73,NA,NA,0,1,-99,-99
"2231","pork","emperor",10,1,15,1,40,9.993,NA,NA,0,1,-99,-99
"2231","bacon","feud",3,0,16,1,20,11.409,NA,NA,1,1,-99,-99
"2231","grip","beach",12,1,17,1,70,8.654,NA,NA,1,1,-99,-99
"2231","want","ascent",10,1,18,1,15,11.616,NA,NA,1,1,-99,-99
"2231","fan","feature",1,0,19,1,10,8.157,NA,NA,0,1,-99,-99
"2231","caring","skirt",1,0,20,1,25,9.644,NA,NA,1,1,-99,-99
"2231","port","cinema",2,0,21,1,51,9.352,NA,NA,0,1,-99,-99
"2231","link","crisis",12,1,22,1,45,11.588,NA,NA,1,1,-99,-99
"2231","plant","worm",1,0,23,1,85,10.477,NA,NA,0,1,-99,-99
"2231","knock","otter",12,1,24,1,60,13.727,NA,NA,1,1,-99,-99
"2231","prison","loaf",3,0,25,1,85,9.805,NA,NA,0,1,-99,-99
"2231","pea","bathtub",12,1,26,1,55,11.353,NA,NA,0,1,-99,-99
"2231","glue","force",11,1,27,1,30,8.967,NA,NA,1,1,-99,-99
"2231","bullet","walkway",11,1,28,1,35,12.948,NA,NA,1,1,-99,-99
"2231","capital","figure",3,0,29,1,20,11.036,NA,NA,1,1,-99,-99
"2231","biology","temper",2,0,30,1,45,14.382,NA,NA,1,1,-99,-99
"2231","smother","surgery",3,0,31,1,55,10.1,NA,NA,1,1,-99,-99
"2231","calf","annoy",2,0,32,1,40,10.758,NA,NA,1,1,-99,-99
"2231","anger","decay",1,0,33,1,70,10.053,NA,NA,1,1,-99,-99
"2231","remind","foam",2,0,34,1,20,9.042,NA,NA,0,1,-99,-99
"2231","climax","saucer",11,1,35,1,30,10.35,NA,NA,0,1,-99,-99
"2231","process","joker",10,1,36,1,25,10.608,NA,NA,0,1,-99,-99
"2231","link","crisis",12,1,1,2,25,28.34,NA,NA,1,1,-99,-99
"2231","find","clown",2,0,2,2,20,5.743,NA,NA,1,1,-99,-99
"2231","copy","bedroom",3,0,3,2,20,5.899,NA,NA,0,1,-99,-99
"2231","capital","figure",3,0,4,2,55,3.03,NA,NA,1,1,-99,-99
"2231","plant","worm",1,0,5,2,80,5.283,NA,NA,0,1,-99,-99
"2231","bias","sirloin",1,0,6,2,30,4.514,NA,NA,0,1,-99,-99
"2231","replace","roach",11,1,7,2,30,3.456,NA,NA,0,1,-99,-99
"2231","climax","saucer",11,1,8,2,55,3.017,NA,NA,0,1,-99,-99
"2231","remind","foam",2,0,9,2,10,3.907,NA,NA,0,1,-99,-99
"2231","process","joker",10,1,10,2,20,4.397,NA,NA,0,1,-99,-99
"2231","mill","feast",12,1,11,2,60,6.708,NA,NA,0,1,-99,-99
"2231","rock","milk",10,1,12,2,25,4.742,NA,NA,1,1,-99,-99
"2231","want","ascent",10,1,13,2,30,4.139,NA,NA,1,1,-99,-99
"2231","fee","chowder",3,0,14,2,55,3.415,NA,NA,1,1,-99,-99
