"subn","word1","word2","points","value","trial","list","jol","jolrt","jolrank","jolrankp","practice","honor","choice","choicert","restudyresp","restudyacc","restudyrtfirst","restudyrt","response","testacc","rtfirst","rt"
"1018","knock","otter",12,1,20,1,76,1.539,31,0.861111111111111,0,0,1,1.508,"",NA,NA,NA,"otter",1,4.222,"6.033"
"1018","anger","decay",1,0,6,1,21,1.717,18,0.5,1,0,0,1.751,"decay",1,NA,5.78,"decay",1,3.3,"4.85"
"1018","plant","worm",1,0,12,1,86,1.733,23,0.638888888888889,0,0,1,2.189,"",NA,NA,NA,"worm",1,2.488,"3.656"
"1018","fan","feature",1,0,28,1,83,1.667,8,0.222222222222222,0,0,1,1.191,"",NA,NA,NA,"feature",1,3.967,"9.436"
"1018","want","ascent",10,1,17,1,19,1.661,32,0.888888888888889,1,0,0,0.998,"?",0,NA,8.934,"?",0,5.771,"6.589"
"1018","port","cinema",2,0,9,1,23,2.397,22,0.611111111111111,1,0,0,0.848,"cinema",1,NA,3.957,"?",0,6.708,"7.474"
"1018","pea","bathtub",12,1,36,1,24,2.415,21,0.583333333333333,1,0,0,1.177,"bathtub",1,NA,3.966,"bathtub",1,1.729,"3.353"
"1018","grip","beach",12,1,2,1,27,1.918,10,0.277777777777778,1,0,0,1.04,"beach",1,NA,4.086,"beach",1,20.781,"22.086"
"1018","caring","skirt",1,0,26,1,14,1.666,14,0.388888888888889,1,0,0,1.005,"skirt",1,NA,3.141,"skirt",1,2.319,"5.681"
"1018","find","clown",2,0,32,1,1,2.03,3,0.0833333333333333,1,0,0,3.514,"?",0,NA,4.26,"?",0,2.581,"3.351"
"1018","date","laugh",12,1,33,1,75,1.878,26,0.722222222222222,0,0,1,0.824,"",NA,NA,NA,"laugh",1,14.898,"16.338"
"1018","biology","temper",2,0,13,1,12,2.204,16,0.444444444444444,1,0,0,1.095,"?",0,NA,9.781,"?",0,2.111,"3.022"
"1018","replace","roach",11,1,10,1,74,2.15,36,1,1,0,0,0.981,"roach",1,NA,2.725,"roach",1,2.007,"3.28"
"1018","calf","annoy",2,0,35,1,71,1.512,11,0.305555555555556,0,0,1,0.987,"",NA,NA,NA,"?",0,17.177,"18.18"
"1018","capital","figure",3,0,31,1,25,1.961,29,0.805555555555556,1,0,0,1.661,"figure",1,NA,5.919,"feud",0,1.86,"3.611"
"1018","nerve","bumper",11,1,18,1,26,1.471,9,0.25,1,0,0,0.957,"?",0,NA,5.228,"?",0,2.351,"3.267"
"1018","bleach","ruin",10,1,15,1,67,2.887,2,0.0555555555555556,0,0,1,3.886,"",NA,NA,NA,"ruin",1,4.077,"5.17"
"1018","mill","feast",12,1,29,1,68,1.804,27,0.75,0,0,1,1.046,"",NA,NA,NA,"feast",1,2.864,"4.879"
"1018","process","joker",10,1,1,1,73,1.863,7,0.194444444444444,0,0,1,0.996,"",NA,NA,NA,"?",0,2.72,"3.8"
"1018","climax","saucer",11,1,11,1,15,1.994,34,0.944444444444444,1,0,0,1.505,"?",0,NA,10.667,"?",0,12.048,"12.834"
"1018","glue","force",11,1,7,1,74,1.639,5,0.138888888888889,0,0,1,2.859,"",NA,NA,NA,"?",0,13.729,"14.645"
"1018","pork","emperor",10,1,27,1,79,1.453,19,0.527777777777778,0,0,1,1.226,"",NA,NA,NA,"emperor",1,1.851,"5.29"
"1018","link","crisis",12,1,19,1,75,2.713,12,0.333333333333333,0,0,1,0.896,"",NA,NA,NA,"?",0,2.6,"3.486"
"1018","rock","milk",10,1,24,1,71,2.086,25,0.694444444444444,0,0,1,0.85,"",NA,NA,NA,"milk",1,1.929,"3.038"
"1018","copy","bedroom",3,0,5,1,1,3.808,1,0.0277777777777778,0,0,1,-99,"",NA,NA,NA,"?",0,1.778,"2.642"
"1018","smother","surgery",3,0,14,1,20,2.03,20,0.555555555555556,1,0,0,1.323,"surgery",1,NA,2.977,"surgery",1,2.672,"4.548"
"1018","need","faucet",11,1,22,1,75,1.711,17,0.472222222222222,0,0,1,1.001,"",NA,NA,NA,"faucet",1,1.949,"3.816"
"1018","chicken","beet",1,0,25,1,65,1.664,13,0.361111111111111,0,0,1,1.281,"",NA,NA,NA,"?",0,1.747,"2.733"
"1018","bias","sirloin",1,0,4,1,11,2.288,15,0.416666666666667,1,0,0,0.989,"?",0,NA,12.58,"?",0,1.984,"2.953"
"1018","bacon","feud",3,0,21,1,24,1.489,33,0.916666666666667,1,0,0,0.89,"feud",1,NA,3.079,"feud",1,1.603,"14.42"
"1018","fee","chowder",3,0,34,1,25,1.736,35,0.972222222222222,1,0,0,0.815,"?",0,NA,11.403,"?",0,2.393,"3.178"
"1018","bullet","walkway",11,1,8,1,63,2.661,6,0.166666666666667,0,0,1,1.021,"",NA,NA,NA,"walkaway",0,2.846,"4.648"
"1018","remind","foam",2,0,23,1,1,2.987,4,0.111111111111111,1,0,0,7.37,"?",0,NA,4.867,"foam",1,4.237,"5.486"
"1018","shrink","mafia",10,1,16,1,74,1.573,30,0.833333333333333,0,0,1,1.105,"",NA,NA,NA,"mafia",1,3.15,"5.119"
"1018","visit","glove",2,0,3,1,24,2.012,24,0.666666666666667,1,0,0,1.225,"glove",1,NA,4.967,"?",0,1.697,"2.505"
"1018","prison","loaf",3,0,30,1,65,1.499,28,0.777777777777778,0,0,1,1.54,"",NA,NA,NA,"loaf",1,1.556,"3.859"
"1155","fan","feature",1,0,8,1,77,6.571,10,0.277777777777778,1,1,1,0.951,"feather",0,NA,18.215,"force",0,14.694,"18.234"
"1155","remind","foam",2,0,35,1,68,1.955,29,0.805555555555556,0,1,0,0.654,"",NA,NA,NA,"pork",0,8.154,"10.702"
"1155","glue","force",11,1,20,1,88,2.574,26,0.722222222222222,0,1,0,1.326,"",NA,NA,NA,"annoy",0,20.267,"23.183"
"1155","biology","temper",2,0,1,1,32,8.009,3,0.0833333333333333,0,1,0,6.367,"",NA,NA,NA,"laugh",0,30.843,"33.559"
"1155","calf","annoy",2,0,9,1,70,2.459,28,0.777777777777778,0,1,0,0.622,"",NA,NA,NA,"annoy",1,7.778,"10.295"
"1155","bullet","walkway",11,1,18,1,83,2.282,7,0.194444444444444,1,1,1,0.702,"sidewalk",0,NA,12.548,"sidewalk",0,9.362,"13.815"
"1155","anger","decay",1,0,32,1,96,2.339,19,0.527777777777778,1,1,1,0.727,"decay",1,NA,11.412,"decay",1,13.65,"17.288"
"1155","fee","chowder",3,0,29,1,62,1.586,16,0.444444444444444,0,1,0,1.215,"",NA,NA,NA,"chowder",1,7.433,"12.757"
"1155","pea","bathtub",12,1,33,1,68,1.973,5,0.138888888888889,1,1,1,10.019,"annoy",0,NA,10.638,"bath",0,22.009,"24.174"
"1155","prison","loaf",3,0,23,1,91,1.745,18,0.5,1,1,1,0.845,"loaf",1,NA,6.871,"loaf",1,6.057,"8.67"
"1155","bias","sirloin",1,0,21,1,70,3.403,35,0.972222222222222,0,1,0,0.791,"",NA,NA,NA,"sirloin",1,7.267,"11.751"
"1155","visit","glove",2,0,19,1,60,2.033,11,0.305555555555556,1,1,1,1.086,"grip",0,NA,14.751,"force",0,21.691,"25.598"
"1155","copy","bedroom",3,0,26,1,71,2.042,25,0.694444444444444,0,1,0,0.655,"",NA,NA,NA,"bathroom",0,8.154,"12.967"
"1155","rock","milk",10,1,10,1,74,5.659,13,0.361111111111111,1,1,1,1.278,"milk",1,NA,9.563,"milk",1,6.89,"11.223"
"1155","bleach","ruin",10,1,24,1,83,2.842,21,0.583333333333333,1,1,1,1.55,"ruin",1,NA,11.807,"worm",0,9.203,"11.463"
"1155","port","cinema",2,0,27,1,59,2.115,30,0.833333333333333,0,1,0,1.687,"",NA,NA,NA,"foam",0,19.45,"22.135"
"1155","process","joker",10,1,11,1,27,1.928,24,0.666666666666667,0,1,0,1.014,"",NA,NA,NA,"jar",0,5.475,"7.407"
"1155","bacon","feud",3,0,22,1,33,5.042,4,0.111111111111111,1,1,1,6.871,"feud",1,NA,10.73,"feud",1,17.931,"20.263"
"1155","want","ascent",10,1,3,1,66,2.994,2,0.0555555555555556,1,1,1,3.702,"ascent",1,NA,11.286,"laugh",0,9.658,"13.679"
"1155","chicken","beet",1,0,15,1,96,3.778,12,0.333333333333333,1,1,1,0.983,"beet",1,NA,11.215,"beet",1,16.01,"17.847"
"1155","pork","emperor",10,1,17,1,76,3.091,23,0.638888888888889,0,1,0,2.23,"",NA,NA,NA,"annoy",0,33.915,"37.567"
"1155","find","clown",2,0,28,1,62,2.915,9,0.25,0,1,0,1.095,"",NA,NA,NA,"beet",0,16.618,"18.599"
"1155","link","crisis",12,1,4,1,25,3.115,31,0.861111111111111,0,1,0,0.935,"",NA,NA,NA,"broken",0,29.538,"33.375"
"1155","need","faucet",11,1,7,1,85,13.178,20,0.555555555555556,1,1,1,0.83,"otter",0,NA,13.951,"faucet",1,7.018,"10.887"
"1155","mill","feast",12,1,16,1,39,1.995,27,0.75,0,1,0,1.124,"",NA,NA,NA,"copy",0,16.067,"18.527"
"1155","smother","surgery",3,0,5,1,72,2.282,22,0.611111111111111,1,1,1,7.862,"surgery",1,NA,13.837,"surgery",1,12.348,"17.335"
"1155","knock","otter",12,1,25,1,80,6.642,6,0.166666666666667,1,1,1,1.181,"otter",1,NA,8.583,"milk",0,16.417,"18.461"
"1155","capital","figure",3,0,12,1,37,16.723,34,0.944444444444444,0,1,0,0.807,"",NA,NA,NA,"copy",0,12.931,"15.264"
"1155","nerve","bumper",11,1,6,1,76,7.002,8,0.222222222222222,1,1,1,0.958,"bumper",1,NA,8.111,"bath",0,9.274,"11.303"
"1155","climax","saucer",11,1,31,1,36,2.355,33,0.916666666666667,0,1,0,0.703,"",NA,NA,NA,"laugh",0,19.729,"22.55"
"1155","caring","skirt",1,0,36,1,27,2.41,14,0.388888888888889,1,1,1,0.919,"jar",0,NA,21.597,"force",0,15.13,"19.111"
"1155","plant","worm",1,0,14,1,67,1.384,36,1,0,1,0,4.045,"",NA,NA,NA,"bullet",0,10.314,"13.663"
"1155","grip","beach",12,1,34,1,67,5.689,1,0.0277777777777778,1,1,1,-99,"beach",1,NA,19.575,"beach",1,3.57,"6.327"
"1155","replace","roach",11,1,13,1,35,1.874,17,0.472222222222222,0,1,0,1.55,"",NA,NA,NA,"glove",0,7.042,"9.703"
"1155","date","laugh",12,1,30,1,84,1.85,32,0.888888888888889,0,1,0,0.991,"",NA,NA,NA,"laugh",1,3.843,"6.703"
"1155","shrink","mafia",10,1,2,1,74,2.073,15,0.416666666666667,1,1,1,1.622,"mafia",1,NA,7.275,"mafia",1,3.73,"7.687"
"1242","capital","figure",3,0,32,1,67,2.727,11,0.305555555555556,0,0,1,3.392,"",NA,NA,NA,"skip",0,41.473,"45.657"
"1242","smother","surgery",3,0,16,1,84,2.53,35,0.972222222222222,1,0,0,1.111,"surgeon",0,NA,6.177,"surgeon",0,30.039,"33.492"
"1242","pea","bathtub",12,1,31,1,92,2.379,20,0.555555555555556,0,0,1,0.975,"",NA,NA,NA,"bathtub",1,3.768,"6.96"
"1242","plant","worm",1,0,26,1,100,2.465,2,0.0555555555555556,0,0,1,7.13,"",NA,NA,NA,"worm",1,2.287,"4.581"
"1242","calf","annoy",2,0,17,1,35,2.57,7,0.194444444444444,0,0,1,1.167,"",NA,NA,NA,"annoying",0,6.585,"9.533"
"1242","anger","decay",1,0,3,1,100,2.071,6,0.166666666666667,0,0,1,1.608,"",NA,NA,NA,"decay",1,2.723,"5.463"
"1242","remind","foam",2,0,36,1,23,2.308,5,0.138888888888889,0,0,1,1.022,"",NA,NA,NA,"foam",1,41.678,"46.358"
"1242","nerve","bumper",11,1,4,1,69,6.677,12,0.333333333333333,0,0,1,1.047,"",NA,NA,NA,"skip",0,30.435,"33.295"
"1242","grip","beach",12,1,28,1,52,3.363,28,0.777777777777778,1,0,0,5.876,"beach",1,NA,15.256,"skip",0,3.444,"7.173"
"1242","date","laugh",12,1,10,1,78,2.51,15,0.416666666666667,0,0,1,1.19,"",NA,NA,NA,"laugh",1,19.96,"23.602"
"1242","knock","otter",12,1,30,1,81,2.511,24,0.666666666666667,0,0,1,0.91,"",NA,NA,NA,"skip",0,18.618,"22.39"
"1242","caring","skirt",1,0,11,1,23,2.186,30,0.833333333333333,1,0,0,0.862,"dunno",0,NA,5.146,"skirt",1,9.205,"11.951"
"1242","bleach","ruin",10,1,7,1,91,2.411,17,0.472222222222222,0,0,1,1.075,"",NA,NA,NA,"ruin",1,4.577,"40.512"
"1242","need","faucet",11,1,14,1,69,3.073,14,0.388888888888889,0,0,1,0.919,"",NA,NA,NA,"faucet",1,17.599,"22.573"
"1242","link","crisis",12,1,2,1,31,2.781,25,0.694444444444444,1,0,0,1.161,"dunno",0,NA,15.103,"skip",0,3.761,"5.933"
"1242","climax","saucer",11,1,1,1,37,1.907,18,0.5,1,0,0,1,"saucer",1,NA,5.238,"saucer",1,2.744,"5.783"
"1242","fan","feature",1,0,8,1,74,2.245,13,0.361111111111111,0,0,1,1.064,"",NA,NA,NA,"skip",0,44.488,"47.127"
"1242","visit","glove",2,0,15,1,34,2.018,31,0.861111111111111,1,0,0,1.125,"glove",1,NA,71.787,"skip",0,2.416,"4.445"
"1242","want","ascent",10,1,22,1,57,2.853,3,0.0833333333333333,1,0,0,1.929,"bias",0,NA,6.482,"skip",0,5.948,"8.223"
"1242","process","joker",10,1,21,1,39,4.1,22,0.611111111111111,1,0,0,1.034,"joker",1,NA,21.702,"joker",1,11.749,"14.752"
"1242","fee","chowder",3,0,20,1,33,2.311,16,0.444444444444444,1,0,0,1.108,"chowder",1,NA,36.394,"skip",0,3.735,"7.773"
"1242","pork","emperor",10,1,33,1,100,2.406,36,1,1,0,0,1.109,"emporer",0,NA,5.61,"emporer",0,2.146,"5.55"
"1242","replace","roach",11,1,9,1,69,1.849,34,0.944444444444444,1,0,0,0.746,"dunno",0,NA,13.005,"skip",0,3.444,"6.706"
"1242","bias","sirloin",1,0,5,1,25,2.262,26,0.722222222222222,1,0,0,0.879,"dunno",0,NA,7.816,"skip",0,2.11,"5.959"
"1242","mill","feast",12,1,25,1,100,2.83,4,0.111111111111111,0,0,1,1.185,"",NA,NA,NA,"feast",1,35.353,"38.197"
"1242","bullet","walkway",11,1,29,1,32,2.072,21,0.583333333333333,1,0,0,0.89,"walkway",1,NA,39.342,"walkway",1,2.255,"5.145"
"1242","shrink","mafia",10,1,18,1,100,2.76,9,0.25,0,0,1,1.079,"",NA,NA,NA,"skip",0,5.991,"8.296"
"1242","bacon","feud",3,0,6,1,86,3.905,23,0.638888888888889,0,0,1,0.89,"",NA,NA,NA,"feud",1,3.625,"31.662"
"1242","copy","bedroom",3,0,13,1,63,2.186,32,0.888888888888889,1,0,0,0.75,"bedroom",1,NA,26.927,"skip",0,5.049,"8.31"
"1242","find","clown",2,0,23,1,100,3.102,8,0.222222222222222,0,0,1,1.03,"",NA,NA,NA,"skip",0,4.11,"6.567"
"1242","prison","loaf",3,0,19,1,42,2.631,10,0.277777777777778,1,0,0,1.287,"foam",0,NA,7.651,"loaf",1,1.923,"4.816"
"1242","glue","force",11,1,24,1,82,2.7,19,0.527777777777778,0,0,1,0.779,"",NA,NA,NA,"force",1,58.443,"61.283"
"1242","rock","milk",10,1,34,1,85,2.09,33,0.916666666666667,1,0,0,3.469,"milk",1,NA,4.623,"milk",1,1.873,"3.61"
"1242","port","cinema",2,0,27,1,10,4.127,1,0.0277777777777778,0,0,1,-99,"",NA,NA,NA,"skip",0,3.826,"6.949"
"1242","chicken","beet",1,0,35,1,100,2.254,27,0.75,1,0,0,1.018,"foam",0,NA,6.177,"skip",0,6.404,"8.845"
"1242","biology","temper",2,0,12,1,49,3.356,29,0.805555555555556,1,0,0,1.175,"anger",0,NA,5.266,"temper",1,17.654,"20.642"
"1282","bullet","walkway",11,1,13,1,72,1.846,35,0.972222222222222,0,0,1,1.05,"",NA,NA,NA,"walkway",1,33.831,"35.593"
"1282","knock","otter",12,1,31,1,72,1.679,29,0.805555555555556,0,0,1,0.891,"",NA,NA,NA,"otter",1,49.944,"52.023"
"1282","bias","sirloin",1,0,12,1,75,22.275,5,0.138888888888889,1,0,0,1.252,"sirloin",1,NA,22.118,"sirloin",1,17.574,"19.726"
"1282","visit","glove",2,0,9,1,74,1.847,22,0.611111111111111,0,0,1,1.238,"",NA,NA,NA,"glove",1,13.728,"15.306"
"1282","find","clown",2,0,19,1,74,1.601,30,0.833333333333333,0,0,1,1.108,"",NA,NA,NA,"clown",1,23.221,"24.71"
"1282","climax","saucer",11,1,11,1,76,1.954,6,0.166666666666667,1,0,0,1.249,"saucer",1,NA,36.99,"beach",0,3.525,"5.506"
"1282","bacon","feud",3,0,34,1,81,1.789,33,0.916666666666667,0,0,1,2.095,"",NA,NA,NA,"house",0,1.8,"3.522"
"1282","copy","bedroom",3,0,16,1,76,1.589,32,0.888888888888889,0,0,1,1.331,"",NA,NA,NA,"chair",0,1.561,"3.133"
"1282","need","faucet",11,1,30,1,77,1.614,24,0.666666666666667,0,0,1,0.832,"",NA,NA,NA,"climax",0,1.908,"3.496"
"1282","smother","surgery",3,0,24,1,90,1.946,28,0.777777777777778,0,0,1,1.015,"",NA,NA,NA,"cow",0,5.96,"7.019"
"1282","anger","decay",1,0,22,1,82,1.738,8,0.222222222222222,1,0,0,0.989,"decay",1,NA,21.815,"hotcakes",0,27.126,"31.359"
"1282","port","cinema",2,0,2,1,73,1.972,9,0.25,1,0,0,1.396,"cinema",1,NA,36.204,"pot",0,2.819,"4.017"
"1282","nerve","bumper",11,1,25,1,73,1.807,26,0.722222222222222,0,0,1,1.197,"",NA,NA,NA,"clean",0,1.776,"3.163"
"1282","glue","force",11,1,36,1,75,2.012,27,0.75,0,0,1,1.125,"",NA,NA,NA,"table",0,2.177,"3.826"
"1282","want","ascent",10,1,6,1,75,1.724,17,0.472222222222222,1,0,0,1.131,"accent",0,NA,31.391,"picture",0,3.467,"5.924"
"1282","calf","annoy",2,0,27,1,79,2.166,4,0.111111111111111,1,0,0,1.413,"annoy",1,NA,11.942,"freeze",0,2.6,"4.639"
"1282","prison","loaf",3,0,5,1,68,2.077,12,0.333333333333333,1,0,0,1.161,"loaf",1,NA,31.39,"beef",0,4.661,"5.977"
"1282","rock","milk",10,1,28,1,84,1.727,10,0.277777777777778,1,0,0,1.267,"milk",1,NA,16.738,"beet",0,14.901,"16.934"
"1282","grip","beach",12,1,18,1,82,1.859,34,0.944444444444444,0,0,1,1.454,"",NA,NA,NA,"beach",1,13.202,"14.73"
"1282","replace","roach",11,1,33,1,82,2.146,1,0.0277777777777778,1,0,0,-99,"roach",1,NA,16.422,"find",0,2.131,"3.587"
"1282","capital","figure",3,0,23,1,78,3.03,2,0.0555555555555556,1,0,0,14.29,"figure",1,NA,25.913,"egg",0,3.347,"4.752"
"1282","pork","emperor",10,1,17,1,73,2.65,3,0.0833333333333333,1,0,0,1.366,"emperor",1,NA,26.899,"karate",0,4.175,"6.915"
"1282","bleach","ruin",10,1,4,1,79,1.608,13,0.361111111111111,1,0,0,3.181,"ruin",1,NA,27.231,"ruin",1,19.475,"20.697"
"1282","plant","worm",1,0,29,1,85,2.013,36,1,0,0,1,1.612,"",NA,NA,NA,"biology",0,1.642,"3.727"
"1282","biology","temper",2,0,1,1,84,2.401,7,0.194444444444444,1,0,0,1.255,"temper",1,NA,1395.934,"temper",1,2.279,"6.048"
"1282","link","crisis",12,1,7,1,92,2.457,20,0.555555555555556,0,0,1,1.355,"",NA,NA,NA,"coffee",0,35.355,"37.015"
"1282","caring","skirt",1,0,20,1,80,1.783,14,0.388888888888889,1,0,0,1.173,"skirt",1,NA,24.136,"otter",0,2.926,"4.461"
"1282","chicken","beet",1,0,8,1,82,2.097,18,0.5,1,0,0,1.125,"beef",0,NA,15.744,"beef",0,1.99,"3.144"
"1282","date","laugh",12,1,26,1,73,1.743,16,0.444444444444444,1,0,0,0.749,"laugh",1,NA,27.241,"refresh",0,30.975,"32.839"
"1282","shrink","mafia",10,1,35,1,73,1.86,31,0.861111111111111,0,0,1,1.062,"",NA,NA,NA,"monkey",0,191.771,"193.708"
"1282","fee","chowder",3,0,21,1,75,2.019,15,0.416666666666667,1,0,0,1.149,"chowder",1,NA,15.464,"bank",0,1.647,"3.109"
"1282","process","joker",10,1,3,1,73,1.937,23,0.638888888888889,0,0,1,0.984,"",NA,NA,NA,"regard",0,10.569,"11.968"
"1282","mill","feast",12,1,10,1,77,1.819,21,0.583333333333333,0,0,1,1.219,"",NA,NA,NA,"saw",0,1.53,"3.188"
"1282","pea","bathtub",12,1,32,1,78,2.034,25,0.694444444444444,0,0,1,0.937,"",NA,NA,NA,"window",0,2.425,"4.187"
"1282","fan","feature",1,0,14,1,93,2.106,11,0.305555555555556,1,0,0,1.086,"feature",1,NA,30.693,"grape",0,1.41,"3.147"
"1282","remind","foam",2,0,15,1,81,1.795,19,0.527777777777778,0,0,1,1.407,"",NA,NA,NA,"worm",0,17.013,"18.624"
"1302","replace","roach",11,1,30,1,70,7.666,10,0.277777777777778,0,0,1,1.228,"",NA,NA,NA,"roach",1,39.214,"40.871"
"1302","remind","foam",2,0,6,1,80,11.507,2,0.0555555555555556,0,0,1,10.957,"",NA,NA,NA,"foam",1,18.18,"19.023"
"1302","port","cinema",2,0,13,1,71,6.584,6,0.166666666666667,0,0,1,1.44,"",NA,NA,NA,"cinema",1,12.74,"13.512"
"1302","chicken","beet",1,0,15,1,75,11.18,20,0.555555555555556,1,0,0,23.455,"beet",1,NA,13.613,"beet",1,16.229,"17.096"
"1302","link","crisis",12,1,17,1,65,7.891,27,0.75,1,0,0,0.791,"crisis",1,NA,12.103,"crisis",1,20.172,"21.288"
"1302","climax","saucer",11,1,4,1,75,12.656,7,0.194444444444444,0,0,1,1.509,"",NA,NA,NA,"saucer",1,29.068,"29.943"
"1302","glue","force",11,1,29,1,84,7.451,30,0.833333333333333,1,0,0,0.952,"force",1,NA,14.031,"force",1,18.902,"24.215"
"1302","bullet","walkway",11,1,19,1,75,7.131,22,0.611111111111111,1,0,0,2.543,"walkway",1,NA,37.726,"walkway",1,21.044,"21.799"
"1302","caring","skirt",1,0,18,1,70,10.022,33,0.916666666666667,1,0,0,0.999,"skirt",1,NA,16.975,"bathtub",0,28.653,"29.52"
"1302","plant","worm",1,0,26,1,40,7.731,5,0.138888888888889,0,0,1,1.917,"",NA,NA,NA," worm",0,54.931,"55.927"
"1302","fan","feature",1,0,8,1,95,12.233,11,0.305555555555556,0,0,1,1.327,"",NA,NA,NA,"feature",1,14.359,"15.12"
"1302","grip","beach",12,1,28,1,80,6.546,21,0.583333333333333,1,0,0,1.894,"beach",1,NA,17.687,"feature",0,17.324,"18.167"
"1302","nerve","bumper",11,1,25,1,86,8.571,17,0.472222222222222,0,0,1,1.11,"",NA,NA,NA," bumper",0,45.125,"46.768"
"1302","bacon","feud",3,0,10,1,31,6.747,24,0.666666666666667,1,0,0,1.215,"feud",1,NA,22.935,"feud",1,18.348,"19.455"
"1302","rock","milk",10,1,3,1,100,6.824,34,0.944444444444444,1,0,0,0.999,"milk",1,NA,72.76,"milk",1,15.437,"16.223"
"1302","shrink","mafia",10,1,22,1,93,6.761,8,0.222222222222222,0,0,1,1.119,"",NA,NA,NA,"mafia",1,19.909,"20.55"
"1302","copy","bedroom",3,0,21,1,90,7.875,32,0.888888888888889,1,0,0,0.847,"bedroom",1,NA,31.893,"bedroom",1,38.653,"39.72"
"1302","process","joker",10,1,23,1,90,7.748,14,0.388888888888889,0,0,1,4.415,"",NA,NA,NA," joker",0,21.621,"22.344"
"1302","find","clown",2,0,33,1,85,9.894,19,0.527777777777778,1,0,0,1.016,"clown",1,NA,15.983,"clown",1,9.173,"10.175"
"1302","bleach","ruin",10,1,35,1,79,12.534,12,0.333333333333333,0,0,1,1.118,"",NA,NA,NA,"ruin",1,11.141,"11.728"
"1302","capital","figure",3,0,20,1,85,10.975,13,0.361111111111111,0,0,1,9.775,"",NA,NA,NA,"figure",1,36.94,"37.55"
"1302","pork","emperor",10,1,5,1,90,5.922,29,0.805555555555556,1,0,0,0.982,"emperor",1,NA,30.323,"emperor",1,11.556,"12.775"
"1302","knock","otter",12,1,9,1,55,8.713,31,0.861111111111111,1,0,0,0.864,"otter",1,NA,14.512,"otter",1,11.644,"12.471"
"1302","prison","loaf",3,0,32,1,76,5.379,26,0.722222222222222,1,0,0,0.864," loaf",0,NA,12.048,"loaf",1,10.149,"11.135"
"1302","biology","temper",2,0,11,1,75,9.219,18,0.5,0,0,1,1.375,"",NA,NA,NA,"temper",1,32.613,"33.544"
"1302","date","laugh",12,1,27,1,75,7.779,23,0.638888888888889,1,0,0,1.311,"laugh",1,NA,18.242,"laugh",1,19.556,"20.415"
"1302","bias","sirloin",1,0,16,1,55,6.718,25,0.694444444444444,1,0,0,0.702,"sirloin",1,NA,15.318,"sirloin",1,14.028,"14.687"
"1302","mill","feast",12,1,36,1,86,8.346,3,0.0833333333333333,0,0,1,10.759,"",NA,NA,NA,"feast",1,11.859,"12.671"
"1302","smother","surgery",3,0,14,1,80,10.295,4,0.111111111111111,0,0,1,1.799,"",NA,NA,NA,"surgery",1,37.291,"38.158"
"1302","fee","chowder",3,0,7,1,70,10.012,9,0.25,0,0,1,1.095,"",NA,NA,NA,"chowder",1,30.765,"31.327"
"1302","anger","decay",1,0,2,1,60,9.402,35,0.972222222222222,1,0,0,1.231,"decay",1,NA,75.802,"decay",1,43.244,"43.984"
"1302","pea","bathtub",12,1,12,1,79,29.2,1,0.0277777777777778,0,0,1,-99,"",NA,NA,NA,"bathtub",1,10.789,"11.392"
"1302","want","ascent",10,1,34,1,80,8.393,36,1,1,0,0,2.071,"ascent",1,NA,16.56,"ascent",1,10.196,"12.583"
"1302","calf","annoy",2,0,1,1,85,11.774,15,0.416666666666667,0,0,1,1.452,"",NA,NA,NA,"annoy",1,19.148,"22.863"
"1302","visit","glove",2,0,24,1,71,6.785,16,0.444444444444444,0,0,1,1.166,"",NA,NA,NA,"glove",1,9.852,"11.335"
"1302","need","faucet",11,1,31,1,75,10.599,28,0.777777777777778,1,0,0,1.006,"bleach",0,NA,66.005,"faucet",1,14.859,"16.103"
"1584","fan","feature",1,0,26,1,34,2.038,7,0.194444444444444,0,0,1,1.373,"",NA,NA,NA,"SKIP",0,9.717,"11.784"
"1584","capital","figure",3,0,32,1,31,3.347,2,0.0555555555555556,0,0,1,5.81,"",NA,NA,NA,"SKIP",0,2.59,"4.995"
"1584","remind","foam",2,0,13,1,31,2.287,18,0.5,0,0,1,1.125,"",NA,NA,NA,"SKIP",0,17.937,"19.146"
"1584","plant","worm",1,0,12,1,34,2.383,15,0.416666666666667,0,0,1,1.397,"",NA,NA,NA,"SKIP",0,20.847,"23.115"
"1584","mill","feast",12,1,24,1,36,2.47,25,0.694444444444444,1,0,0,1.026,"floor",0,NA,7.293,"flour",0,4.132,"6.129"
"1584","shrink","mafia",10,1,19,1,33,3.692,27,0.75,1,0,0,2.346,"skip",0,NA,4.571,"SKIP",0,9.971,"11.06"
"1584","port","cinema",2,0,30,1,36,2.686,24,0.666666666666667,1,0,0,2.429,"skip",0,NA,6.64,"SKIP",0,10.228,"11.248"
"1584","date","laugh",12,1,8,1,37,5.263,36,1,1,0,0,3.2,"laugh",1,NA,4.053,"SKIP",0,6.663,"8.798"
"1584","anger","decay",1,0,2,1,33,2.06,17,0.472222222222222,0,0,1,1.188,"",NA,NA,NA,"SKIP",0,7.488,"8.538"
"1584","visit","glove",2,0,16,1,29,1.823,20,0.555555555555556,1,0,0,1.342,"skip",0,NA,4.399,"SKIP",0,8.81,"10.091"
"1584","copy","bedroom",3,0,20,1,36,1.962,19,0.527777777777778,1,0,0,1.018,"skip",0,NA,5.024,"destroy",0,7.834,"11.686"
"1584","bleach","ruin",10,1,33,1,35,2.337,10,0.277777777777778,0,0,1,1.784,"",NA,NA,NA,"SKIP",0,5.728,"6.881"
"1584","grip","beach",12,1,27,1,32,2.864,5,0.138888888888889,0,0,1,1.058,"",NA,NA,NA,"SKIP",0,7.287,"8.676"
"1584","fee","chowder",3,0,7,1,30,2.066,12,0.333333333333333,0,0,1,1.77,"",NA,NA,NA,"SKIP",0,6.288,"7.462"
"1584","biology","temper",2,0,22,1,33,1.976,11,0.305555555555556,0,0,1,1.791,"",NA,NA,NA,"SKIP",0,8.608,"9.893"
"1584","calf","annoy",2,0,5,1,35,2.247,16,0.444444444444444,0,0,1,1.861,"",NA,NA,NA,"SKIP",0,20.408,"22.063"
"1584","caring","skirt",1,0,28,1,31,1.991,35,0.972222222222222,1,0,0,2.29,"skip",0,NA,11.132,"SKIP",0,9.397,"12.038"
"1584","prison","loaf",3,0,34,1,33,2.73,29,0.805555555555556,1,0,0,3.134,"skip",0,NA,6.474,"laughter",0,7.145,"10.74"
"1584","need","faucet",11,1,29,1,39,2.218,14,0.388888888888889,0,0,1,1.163,"",NA,NA,NA,"SKIP",0,14.43,"16.059"
"1584","pork","emperor",10,1,23,1,32,2.276,33,0.916666666666667,1,0,0,2.624,"emperor",1,NA,4.31,"emperor",1,2.735,"7.462"
"1584","link","crisis",12,1,11,1,31,2.126,23,0.638888888888889,1,0,0,0.99,"destruction",0,NA,5.433,"destruction",0,4.215,"14.292"
"1584","nerve","bumper",11,1,36,1,30,2.401,4,0.111111111111111,0,0,1,1.313,"",NA,NA,NA,"SKIP",0,17.87,"19.633"
"1584","process","joker",10,1,25,1,32,3.267,32,0.888888888888889,1,0,0,1.451,"skip",0,NA,5.01,"SKIP",0,11.745,"12.553"
"1584","rock","milk",10,1,35,1,38,2.621,3,0.0833333333333333,0,0,1,4.598,"",NA,NA,NA,"SKIP",0,11.175,"12.31"
"1584","knock","otter",12,1,4,1,32,2.206,30,0.833333333333333,1,0,0,1.8,"wood",0,NA,4.079,"door",0,4.365,"6.445"
"1584","want","ascent",10,1,3,1,34,2.78,31,0.861111111111111,1,0,0,1.319,"skip",0,NA,10.729,"blade",0,12.448,"14.38"
"1584","climax","saucer",11,1,21,1,32,1.994,6,0.166666666666667,0,0,1,1.039,"",NA,NA,NA,"SKIP",0,9.016,"9.953"
"1584","bias","sirloin",1,0,15,1,34,2.459,22,0.611111111111111,1,0,0,1.142,"skip",0,NA,2.778,"SKIP",0,25.483,"26.814"
"1584","pea","bathtub",12,1,17,1,39,2.409,13,0.361111111111111,0,0,1,1.351,"",NA,NA,NA,"bathtub",1,2.515,"5.743"
"1584","replace","roach",11,1,6,1,34,2.299,9,0.25,0,0,1,2.929,"",NA,NA,NA,"SKIP",0,10.947,"11.715"
"1584","smother","surgery",3,0,14,1,30,1.857,21,0.583333333333333,1,0,0,1.002,"surgery",1,NA,6.192,"surgery",1,5.229,"7.436"
"1584","bacon","feud",3,0,31,1,36,2.541,26,0.722222222222222,1,0,0,2.896,"need",0,NA,7.253,"emperor",0,2.537,"6.442"
"1584","glue","force",11,1,9,1,29,2.334,28,0.777777777777778,1,0,0,3.275,"hold",0,NA,3.902,"hold",0,2.624,"4.45"
"1584","bullet","walkway",11,1,1,1,38,2.34,8,0.222222222222222,0,0,1,0.949,"",NA,NA,NA,"SKIP",0,10.516,"11.93"
"1584","chicken","beet",1,0,18,1,31,2.68,34,0.944444444444444,1,0,0,3.916,"afoot",0,NA,4.439,"SKIP",0,9.378,"11.438"
"1584","find","clown",2,0,10,1,32,4.224,1,0.0277777777777778,0,0,1,-99,"",NA,NA,NA,"SKIP",0,15.515,"16.747"
"1636","prison","loaf",3,0,15,1,90,3.336,17,0.472222222222222,1,0,0,0.986,"loaf",1,NA,5.281,"loaf",1,10.511,"13.366"
"1636","bleach","ruin",10,1,19,1,100,2.247,33,0.916666666666667,0,0,1,0.898,"",NA,NA,NA,"ruin",1,14.839,"16.414"
"1636","rock","milk",10,1,14,1,100,2.403,20,0.555555555555556,0,0,1,0.922,"",NA,NA,NA,"milk",1,6.448,"12.967"
"1636","caring","skirt",1,0,22,1,75,5.035,2,0.0555555555555556,1,0,0,17.519,"skirt",1,NA,21.735,"skirt",1,8.184,"9.841"
"1636","biology","temper",2,0,11,1,75,8.411,1,0.0277777777777778,1,0,0,-99,"temper",1,NA,17.001,"temper",1,12.29,"14.125"
"1636","remind","foam",2,0,5,1,75,3.911,36,1,1,0,0,1.314,"foam",1,NA,11.724,"foam",1,12.057,"13.818"
"1636","find","clown",2,0,33,1,80,3,14,0.388888888888889,1,0,0,0.925,"clown",1,NA,14.135,"clown",1,4.909,"6.658"
"1636","bullet","walkway",11,1,28,1,100,2.138,29,0.805555555555556,0,0,1,1.026,"",NA,NA,NA,"walkway",1,4.227,"11.581"
"1636","smother","surgery",3,0,4,1,80,4.245,22,0.611111111111111,1,0,0,1.227,"surgery",1,NA,11.567,"surgery",1,6.558,"8.707"
"1636","climax","saucer",11,1,30,1,100,3.029,16,0.444444444444444,0,0,1,0.995,"",NA,NA,NA,"saucer",1,12.275,"14.81"
"1636","glue","force",11,1,16,1,100,3.565,4,0.111111111111111,0,0,1,1.347,"",NA,NA,NA,"force",1,7.552,"9.225"
"1636","pea","bathtub",12,1,7,1,100,2.146,35,0.972222222222222,0,0,1,1.208,"",NA,NA,NA,"bathtub",1,8.79,"11.131"
"1636","calf","annoy",2,0,35,1,80,2.867,28,0.777777777777778,1,0,0,0.764,"annoy",1,NA,18.874,"annoy",1,7.77,"9.919"
"1636","want","ascent",10,1,25,1,100,2.516,18,0.5,0,0,1,1.044,"",NA,NA,NA,"ascent",1,5.721,"9.293"
"1636","fee","chowder",3,0,8,1,85,6.131,21,0.583333333333333,1,0,0,1.224,"chowder",1,NA,10.518,"chowder",1,3.131,"19.819"
"1636","need","faucet",11,1,26,1,100,2.453,12,0.333333333333333,0,0,1,0.962,"",NA,NA,NA,"faucet",1,15.153,"17.614"
"1636","bacon","feud",3,0,27,1,70,3.376,6,0.166666666666667,1,0,0,1.903,"feud",1,NA,12.166,"feud",1,17.97,"20.541"
"1636","replace","roach",11,1,23,1,100,2.755,25,0.694444444444444,0,0,1,0.837,"",NA,NA,NA,"roach",1,15.109,"17.16"
"1636","date","laugh",12,1,18,1,100,2.49,7,0.194444444444444,0,0,1,1.36,"",NA,NA,NA,"laugh",1,2.851,"6.42"
"1636","mill","feast",12,1,3,1,100,2.638,30,0.833333333333333,0,0,1,6.148,"",NA,NA,NA,"feast",1,1.335,"12.141"
"1636","port","cinema",2,0,17,1,85,4.039,11,0.305555555555556,1,0,0,0.938,"cinema",1,NA,18.997,"cinema",1,17.651,"19.856"
"1636","chicken","beet",1,0,6,1,80,3.823,5,0.138888888888889,1,0,0,4.076,"beet",1,NA,5.332,"beet",1,12.187,"13.701"
"1636","plant","worm",1,0,21,1,85,4.346,13,0.361111111111111,1,0,0,1.034,"worm",1,NA,10.397,"worm",1,7.253,"8.797"
"1636","grip","beach",12,1,13,1,100,2.412,34,0.944444444444444,0,0,1,0.928,"",NA,NA,NA,"beach",1,22.945,"24.947"
"1636","capital","figure",3,0,10,1,75,7.281,8,0.222222222222222,1,0,0,1.305,"figure",1,NA,9.134,"figure",1,1.788,"9.001"
"1636","link","crisis",12,1,29,1,100,2.153,27,0.75,0,0,1,0.979,"",NA,NA,NA,"crisis",1,27.019,"29.346"
"1636","visit","glove",2,0,36,1,70,3.166,23,0.638888888888889,1,0,0,1.016,"glove",1,NA,11.565,"glove",1,14.984,"16.586"
"1636","shrink","mafia",10,1,34,1,100,2.596,26,0.722222222222222,0,0,1,1.094,"",NA,NA,NA,"mafia",1,2.189,"3.927"
"1636","fan","feature",1,0,20,1,75,3.293,19,0.527777777777778,1,0,0,1.185,"feature",1,NA,13.221,"feature",1,4.614,"6.726"
"1636","anger","decay",1,0,31,1,80,3.213,31,0.861111111111111,1,0,0,1.023,"decay",1,NA,15.994,"decay",1,4.205,"6.389"
"1636","copy","bedroom",3,0,24,1,75,3.463,24,0.666666666666667,1,0,0,0.867,"bedroom",1,NA,12.989,"bedroom",1,8.953,"11.465"
"1636","process","joker",10,1,12,1,100,2.73,32,0.888888888888889,0,0,1,0.972,"",NA,NA,NA,"joker",1,12.127,"13.757"
"1636","bias","sirloin",1,0,1,1,80,3.42,9,0.25,1,0,0,0.939,"sirloin",1,NA,14.322,"sirloin",1,30.617,"32.872"
"1636","pork","emperor",10,1,32,1,100,2.269,10,0.277777777777778,0,0,1,1.208,"",NA,NA,NA,"emperor",1,15.735,"19.49"
"1636","nerve","bumper",11,1,2,1,100,2.788,3,0.0833333333333333,0,0,1,1.266,"",NA,NA,NA,"bumper",1,30.901,"32.78"
"1636","knock","otter",12,1,9,1,100,2.302,15,0.416666666666667,0,0,1,0.955,"",NA,NA,NA,"otter",1,18.424,"19.973"
"1700","fee","chowder",3,0,22,1,18,1.651,12,0.333333333333333,1,0,0,0.89,"chowder",1,NA,4.875,"clown",0,16.208,"17.538"
"1700","need","faucet",11,1,27,1,35,2.638,5,0.138888888888889,0,0,1,1.367,"",NA,NA,NA,"ankle",0,3.68,"4.949"
"1700","caring","skirt",1,0,25,1,66,2.253,22,0.611111111111111,1,0,0,1.366,"skirt",1,NA,3.746,"skirt",1,1.693,"2.896"
"1700","replace","roach",11,1,28,1,32,1.446,34,0.944444444444444,0,0,1,0.884,"",NA,NA,NA,"retainer",0,5.491,"9.483"
"1700","pea","bathtub",12,1,11,1,35,1.616,7,0.194444444444444,0,0,1,1.001,"",NA,NA,NA,"bathtub",1,3.22,"6.184"
"1700","date","laugh",12,1,13,1,42,1.266,18,0.5,0,0,1,0.763,"",NA,NA,NA,"skip",0,5.379,"6.258"
"1700","plant","worm",1,0,3,1,61,1.659,17,0.472222222222222,1,0,0,0.983,"worm",1,NA,3.769,"worm",1,1.678,"3.078"
"1700","glue","force",11,1,8,1,61,1.71,10,0.277777777777778,0,0,1,1.233,"",NA,NA,NA,"force",1,1.291,"2.622"
"1700","anger","decay",1,0,36,1,34,1.536,29,0.805555555555556,1,0,0,1.115,"no",0,NA,18.765,"hate",0,1.673,"2.694"
"1700","bias","sirloin",1,0,19,1,20,1.708,26,0.722222222222222,1,0,0,0.947,"sirloin",1,NA,5.274,"sirloin",1,1.439,"3.293"
"1700","biology","temper",2,0,33,1,43,1.373,16,0.444444444444444,1,0,0,1.037,"temper",1,NA,5.215,"temper",1,1.404,"2.73"
"1700","port","cinema",2,0,34,1,39,1.659,11,0.305555555555556,1,0,0,1.023,"cinema",1,NA,9.425,"cinema",1,1.803,"3.323"
"1700","process","joker",10,1,12,1,30,1.605,13,0.361111111111111,0,0,1,0.96,"",NA,NA,NA,"paper",0,5.89,"6.987"
"1700","bullet","walkway",11,1,35,1,36,1.415,25,0.694444444444444,0,0,1,5.231,"",NA,NA,NA,"walkway",1,1.763,"4.827"
"1700","capital","figure",3,0,17,1,40,2.147,8,0.222222222222222,1,0,0,1.007,"figure",1,NA,4.048,"figure",1,2.173,"3.616"
"1700","visit","glove",2,0,32,1,72,1.398,35,0.972222222222222,1,0,0,1.543,"glove",1,NA,3.845,"day",0,4.084,"5.134"
"1700","climax","saucer",11,1,18,1,42,2.773,30,0.833333333333333,0,0,1,0.759,"",NA,NA,NA,"saucer",1,3.886,"5.291"
"1700","grip","beach",12,1,10,1,33,3.124,31,0.861111111111111,0,0,1,0.801,"",NA,NA,NA,"beach",1,2.417,"3.729"
"1700","remind","foam",2,0,7,1,19,2.107,36,1,0,0,1,1.042,"",NA,NA,NA,"skip",0,3.871,"5.424"
"1700","bacon","feud",3,0,24,1,65,1.353,15,0.416666666666667,1,0,0,0.899,"feud",1,NA,4.946,"feud",1,1.278,"2.557"
"1700","want","ascent",10,1,23,1,27,1.973,20,0.555555555555556,0,0,1,0.822,"",NA,NA,NA,"skip",0,1.844,"3.103"
"1700","copy","bedroom",3,0,31,1,35,1.811,23,0.638888888888889,1,0,0,0.937,"bedroom",1,NA,5.397,"bedroom",1,1.871,"3.944"
"1700","rock","milk",10,1,14,1,43,1.557,28,0.777777777777778,0,0,1,1.029,"",NA,NA,NA,"milk",1,1.261,"2.559"
"1700","fan","feature",1,0,5,1,69,2.701,4,0.111111111111111,1,0,0,2.407,"feature",1,NA,4.643,"feature",1,1.319,"2.746"
"1700","prison","loaf",3,0,16,1,36,4.187,2,0.0555555555555556,1,0,0,18.676,"loaf",1,NA,4.028,"loaf",1,3.005,"4.357"
"1700","shrink","mafia",10,1,21,1,59,1.489,27,0.75,0,0,1,0.72,"",NA,NA,NA,"mafia",1,1.81,"3.286"
"1700","bleach","ruin",10,1,1,1,60,6.302,1,0.0277777777777778,1,0,0,-99,"ruin",1,NA,3.638,"ruin",1,1.204,"2.619"
"1700","smother","surgery",3,0,2,1,59,1.595,3,0.0833333333333333,1,0,0,3.114,"surgery",1,NA,4.628,"skip",0,7.547,"8.837"
"1700","pork","emperor",10,1,6,1,57,1.383,21,0.583333333333333,0,0,1,2.939,"",NA,NA,NA,"skip",0,2.307,"3.808"
"1700","link","crisis",12,1,29,1,22,2.507,19,0.527777777777778,0,0,1,0.877,"",NA,NA,NA,"crisis",1,1.825,"3.588"
"1700","calf","annoy",2,0,9,1,22,1.693,32,0.888888888888889,1,0,0,0.9,"annoy",1,NA,3.451,"annoy",1,1.111,"5.029"
"1700","knock","otter",12,1,30,1,26,2.675,24,0.666666666666667,0,0,1,1.862,"",NA,NA,NA,"otter",1,1.829,"2.908"
"1700","chicken","beet",1,0,26,1,59,1.625,33,0.916666666666667,1,0,0,1.369,"beet",1,NA,4.007,"beet",1,1.44,"2.56"
"1700","mill","feast",12,1,4,1,28,1.518,6,0.166666666666667,0,0,1,1.257,"",NA,NA,NA,"run",0,3.886,"4.984"
"1700","nerve","bumper",11,1,20,1,41,2.044,14,0.388888888888889,0,0,1,0.979,"",NA,NA,NA,"bumper",1,3.537,"7.045"
"1700","find","clown",2,0,15,1,23,1.395,9,0.25,1,0,0,1.331,"clown",1,NA,4.845,"skip",0,1.696,"2.919"
"1804","climax","saucer",11,1,30,1,4,1.821,13,0.361111111111111,1,0,0,0.909,"nnnnn",0,NA,4.501,"nnnn",0,4.157,"5.587"
"1804","find","clown",2,0,13,1,87,4.027,11,0.305555555555556,1,0,0,1.695,"clown",1,NA,20.741,"clown",1,3.832,"5.764"
"1804","remind","foam",2,0,14,1,16,1.997,23,0.638888888888889,1,0,0,1.079,"nnn",0,NA,15.053,"foam",1,8.103,"9.936"
"1804","pea","bathtub",12,1,27,1,8,2.111,20,0.555555555555556,1,0,0,1.173,"bathtub",1,NA,21.258,"bathtub",1,5.434,"12.262"
"1804","chicken","beet",1,0,25,1,55,3.856,30,0.833333333333333,0,0,1,1.254,"",NA,NA,NA,"beet",1,6.397,"8.261"
"1804","capital","figure",3,0,32,1,22,2.522,26,0.722222222222222,0,0,1,2.892,"",NA,NA,NA,"nnn",0,3.95,"5.075"
"1804","fan","feature",1,0,8,1,55,1.834,35,0.972222222222222,0,0,1,5.63,"",NA,NA,NA,"feature",1,8.107,"10.595"
"1804","prison","loaf",3,0,19,1,16,1.857,28,0.777777777777778,0,0,1,1.203,"",NA,NA,NA,"nnnn",0,10.626,"12.99"
"1804","nerve","bumper",11,1,18,1,15,1.942,6,0.166666666666667,1,0,0,1.718,"nnnn",0,NA,8.285,"bumper",1,4.851,"7.818"
"1804","mill","feast",12,1,9,1,24,2.045,8,0.222222222222222,1,0,0,1.663,"nnn",0,NA,18.465,"fest",0,5.332,"7.222"
"1804","bacon","feud",3,0,23,1,99,2.509,18,0.5,0,0,1,0.846,"",NA,NA,NA,"feud",1,2.353,"5.772"
"1804","smother","surgery",3,0,16,1,52,3,36,1,0,0,1,3.309,"",NA,NA,NA,"surgery",1,7.175,"9.471"
"1804","copy","bedroom",3,0,1,1,28,1.68,24,0.666666666666667,1,0,0,0.917,"bedroom",1,NA,7.613,"nnn",0,2.006,"2.943"
"1804","plant","worm",1,0,21,1,99,2.265,12,0.333333333333333,0,0,1,1.643,"",NA,NA,NA,"worm",1,2.855,"4.797"
"1804","need","faucet",11,1,10,1,24,2.037,9,0.25,1,0,0,2.861,"nnnn",0,NA,21.887,"nnnn",0,17.537,"21.375"
"1804","replace","roach",11,1,5,1,11,1.827,15,0.416666666666667,1,0,0,1.108,"hjjjgh",0,NA,18.814,"nnnn",0,6.993,"8.545"
"1804","bias","sirloin",1,0,28,1,16,1.989,19,0.527777777777778,1,0,0,1.2,"nnnn",0,NA,11.926,"sirloin",1,3.762,"6.545"
"1804","port","cinema",2,0,29,1,27,2.329,4,0.111111111111111,1,0,0,4.742,"nnn",0,NA,9.14,"cinema",1,3.02,"4.858"
"1804","glue","force",11,1,15,1,36,1.697,5,0.138888888888889,1,0,0,1.393,"nnnn",0,NA,11.925,"force",1,5.08,"7.695"
"1804","process","joker",10,1,6,1,33,1.666,31,0.861111111111111,0,0,1,0.984,"",NA,NA,NA,"jocker",0,5.407,"9.193"
"1804","bullet","walkway",11,1,17,1,22,8.856,22,0.611111111111111,1,0,0,0.945,"nnnn",0,NA,12.927,"nnnn",0,5.436,"6.512"
"1804","date","laugh",12,1,33,1,40,2.972,7,0.194444444444444,1,0,0,1.295,"nnnn",0,NA,10.783,"laugh",1,14.006,"15.965"
"1804","calf","annoy",2,0,34,1,35,6.68,2,0.0555555555555556,0,0,1,3.964,"",NA,NA,NA,"annoy",1,3.069,"5.19"
"1804","bleach","ruin",10,1,26,1,28,2.969,34,0.944444444444444,0,0,1,1.109,"",NA,NA,NA,"ruin",1,12.781,"14.708"
"1804","link","crisis",12,1,35,1,29,1.456,25,0.694444444444444,0,0,1,0.794,"",NA,NA,NA,"nnnn",0,1.389,"2.226"
"1804","fee","chowder",3,0,3,1,1,1.875,32,0.888888888888889,0,0,1,1.269,"",NA,NA,NA,"nnnn",0,8.912,"9.763"
"1804","caring","skirt",1,0,7,1,87,1.904,16,0.444444444444444,0,0,1,1.542,"",NA,NA,NA,"skirt",1,19.673,"21.546"
"1804","biology","temper",2,0,22,1,2,1.86,14,0.388888888888889,1,0,0,1.224,"temper",1,NA,13.807,"nnnn",0,5.004,"5.917"
"1804","shrink","mafia",10,1,36,1,75,4.058,1,0.0277777777777778,1,0,0,-99,"mafia",1,NA,10.26,"mafia",1,4.204,"6.187"
"1804","grip","beach",12,1,12,1,24,3.296,10,0.277777777777778,1,0,0,2.436,"nnnn",0,NA,4.018,"nnn",0,4.48,"12.971"
"1804","want","ascent",10,1,2,1,29,1.873,27,0.75,0,0,1,3.097,"",NA,NA,NA,"nnnn",0,12.989,"13.956"
"1804","rock","milk",10,1,31,1,100,2.213,21,0.583333333333333,0,0,1,3.91,"",NA,NA,NA,"milk",1,1.596,"3.305"
"1804","anger","decay",1,0,11,1,18,1.891,29,0.805555555555556,0,0,1,0.939,"",NA,NA,NA,"nnnn",0,6.695,"7.865"
"1804","pork","emperor",10,1,4,1,100,1.936,17,0.472222222222222,0,0,1,0.863,"",NA,NA,NA,"emperor",1,7.374,"10.14"
"1804","visit","glove",2,0,24,1,27,6.976,3,0.0833333333333333,1,0,0,7.226,"nnnn",0,NA,7.984,"nnnn",0,7.046,"7.878"
"1804","knock","otter",12,1,20,1,37,2.122,33,0.916666666666667,0,0,1,0.984,"",NA,NA,NA,"otter",1,9.949,"11.768"
"1909","copy","bedroom",3,0,17,1,6,1.735,3,0.0833333333333333,1,1,1,2.243,"otter",0,NA,6.487,"milk",0,9.96,"11.239"
"1909","bullet","walkway",11,1,16,1,41,1.599,4,0.111111111111111,1,1,1,0.776,"walkway",1,NA,3.595,"history",0,6.888,"7.96"
"1909","smother","surgery",3,0,6,1,36,1.831,6,0.166666666666667,1,1,1,0.794,"surgery",1,NA,4.599,"injury",0,8.201,"9.576"
"1909","bias","sirloin",1,0,25,1,20,1.525,19,0.527777777777778,0,1,0,0.721,"",NA,NA,NA,"skip",0,8.871,"9.623"
"1909","plant","worm",1,0,27,1,27,1.897,20,0.555555555555556,0,1,0,8.978,"",NA,NA,NA,"skip",0,5.504,"7.072"
"1909","chicken","beet",1,0,33,1,8,1.652,18,0.5,1,1,1,0.682,"beet",1,NA,8.613,"leek",0,3.3,"4.231"
"1909","biology","temper",2,0,19,1,18,1.295,14,0.388888888888889,1,1,1,0.82,"temper",1,NA,2.743,"skip",0,3.265,"4.2"
"1909","port","cinema",2,0,18,1,40,1.301,13,0.361111111111111,1,1,1,0.745,"theater",0,NA,6.983,"plaza",0,2.946,"4.712"
"1909","need","faucet",11,1,14,1,24,3.967,31,0.861111111111111,0,1,0,0.716,"",NA,NA,NA,"skip",0,13.977,"15.04"
"1909","link","crisis",12,1,10,1,30,1.347,29,0.805555555555556,0,1,0,0.658,"",NA,NA,NA,"skip",0,2.176,"2.889"
"1909","process","joker",10,1,20,1,38,1.435,25,0.694444444444444,0,1,0,0.873,"",NA,NA,NA,"skip",0,7.582,"8.27"
"1909","pork","emperor",10,1,24,1,11,2.859,34,0.944444444444444,0,1,0,0.762,"",NA,NA,NA,"skip",0,11.885,"12.591"
"1909","visit","glove",2,0,29,1,16,2.212,16,0.444444444444444,1,1,1,0.681,"glove",1,NA,3.91,"glove",1,3.403,"4.239"
"1909","grip","beach",12,1,1,1,8,3.664,2,0.0555555555555556,1,1,1,3.031,"ocean",0,NA,5.707,"skip",0,2.648,"3.376"
"1909","remind","foam",2,0,36,1,38,1.41,8,0.222222222222222,1,1,1,0.838,"otter",0,NA,2.999,"otter",0,2.417,"3.68"
"1909","glue","force",11,1,4,1,39,1.352,26,0.722222222222222,0,1,0,0.716,"",NA,NA,NA,"milk",0,4.935,"6.041"
"1909","find","clown",2,0,21,1,45,1.286,35,0.972222222222222,0,1,0,0.633,"",NA,NA,NA,"skip",0,5.015,"5.663"
"1909","replace","roach",11,1,28,1,26,1.442,33,0.916666666666667,0,1,0,0.603,"",NA,NA,NA,"skip",0,2.705,"3.471"
"1909","climax","saucer",11,1,23,1,15,1.275,15,0.416666666666667,1,1,1,0.807,"saucer",1,NA,3.706,"saucer",1,1.815,"3.023"
"1909","want","ascent",10,1,3,1,5,1.727,9,0.25,1,1,1,0.744,"ascent",1,NA,3.912,"skip",0,2.424,"3.151"
"1909","nerve","bumper",11,1,31,1,36,1.291,27,0.75,0,1,0,0.748,"",NA,NA,NA,"skip",0,2.335,"3.263"
"1909","caring","skirt",1,0,34,1,42,1.459,24,0.666666666666667,0,1,0,0.843,"",NA,NA,NA,"skip",0,2.815,"4.201"
"1909","bacon","feud",3,0,15,1,16,1.355,32,0.888888888888889,0,1,0,1.232,"",NA,NA,NA,"skip",0,3.692,"4.566"
"1909","fan","feature",1,0,13,1,31,1.344,5,0.138888888888889,1,1,1,0.825,"otter",0,NA,6.179,"skip",0,1.647,"2.343"
"1909","fee","chowder",3,0,11,1,36,1.172,23,0.638888888888889,0,1,0,0.777,"",NA,NA,NA,"melon",0,33.665,"34.64"
"1909","pea","bathtub",12,1,32,1,31,2.324,21,0.583333333333333,0,1,0,1.7,"",NA,NA,NA,"bathtub",1,2.712,"5.495"
"1909","anger","decay",1,0,7,1,13,1.67,17,0.472222222222222,1,1,1,0.697,"milk",0,NA,16.608,"skip",0,6.82,"7.44"
"1909","prison","loaf",3,0,26,1,33,1.499,28,0.777777777777778,0,1,0,1.29,"",NA,NA,NA,"skip",0,1.864,"2.519"
"1909","bleach","ruin",10,1,8,1,39,1.533,22,0.611111111111111,0,1,0,1.157,"",NA,NA,NA,"skip",0,2.295,"2.999"
"1909","knock","otter",12,1,12,1,26,1.362,36,1,0,1,0,0.653,"",NA,NA,NA,"skip",0,2.063,"2.727"
"1909","date","laugh",12,1,5,1,24,4.287,1,0.0277777777777778,1,1,1,-99,"laugh",1,NA,2.967,"skip",0,18.008,"18.783"
"1909","shrink","mafia",10,1,30,1,12,1.604,10,0.277777777777778,1,1,1,0.946,"mafia",1,NA,3.528,"skip",0,1.583,"2.199"
"1909","mill","feast",12,1,22,1,51,1.404,30,0.833333333333333,0,1,0,0.765,"",NA,NA,NA,"skip",0,6.688,"7.375"
"1909","capital","figure",3,0,9,1,53,2.795,7,0.194444444444444,1,1,1,0.763,"venture",0,NA,7.005,"venture",0,1.919,"3.671"
"1909","calf","annoy",2,0,35,1,7,1.377,11,0.305555555555556,1,1,1,1.104,"annoy",1,NA,4.757,"skip",0,2.087,"2.743"
"1909","rock","milk",10,1,2,1,3,1.536,12,0.333333333333333,1,1,1,0.649,"milk",1,NA,2.647,"milk",1,2.416,"3.313"
"1916","date","laugh",12,1,17,1,82,6.789,3,0.0833333333333333,0,0,1,5.255,"",NA,NA,NA,"pea",0,27.142,"39.285"
"1916","knock","otter",12,1,16,1,70,5.827,24,0.666666666666667,0,0,1,0.959,"",NA,NA,NA,"otter",1,10.127,"13.215"
"1916","process","joker",10,1,11,1,33,4.547,21,0.583333333333333,1,0,0,2.335,"joker",1,NA,5.519,"port",0,13.088,"24.511"
"1916","bleach","ruin",10,1,14,1,99,3.49,9,0.25,0,0,1,1.127,"",NA,NA,NA,"ruin",1,44.817,"47.551"
"1916","anger","decay",1,0,10,1,82,2.652,34,0.944444444444444,1,0,0,2.088,"dont know",0,NA,20.919,"joker",0,6.953,"9.695"
"1916","glue","force",11,1,28,1,32,2.738,27,0.75,1,0,0,1.591,"force",1,NA,12.399,"force",1,2.377,"10.295"
"1916","fee","chowder",3,0,29,1,63,4.036,28,0.777777777777778,1,0,0,10.047,"bathtub",0,NA,8.351," knock",0,15.37,"23.944"
"1916","prison","loaf",3,0,4,1,33,3.082,32,0.888888888888889,1,0,0,2.551,"beet",0,NA,7.007,"temper",0,22.048,"35.576"
"1916","caring","skirt",1,0,21,1,77,3.74,23,0.638888888888889,0,0,1,1.271,"",NA,NA,NA,"skirt",1,9.859,"12.784"
"1916","bullet","walkway",11,1,23,1,32,4.77,15,0.416666666666667,1,0,0,1.328,"grip",0,NA,22.048,"gun",0,8.786,"15.896"
"1916","chicken","beet",1,0,9,1,23,3.714,30,0.833333333333333,1,0,0,3.591,"process",0,NA,14.427,"feather",0,4.417,"9.264"
"1916","mill","feast",12,1,13,1,57,5.043,14,0.388888888888889,1,0,0,0.991,"link",0,NA,14.639,"feed",0,11.634,"15.032"
"1916","find","clown",2,0,2,1,25,7.563,10,0.277777777777778,0,0,1,2.503,"",NA,NA,NA,"glue",0,13.01,"15.583"
"1916","link","crisis",12,1,12,1,88,2.498,26,0.722222222222222,0,0,1,1.239,"",NA,NA,NA,"attach",0,12.803,"18.304"
"1916","calf","annoy",2,0,8,1,25,2.844,7,0.194444444444444,0,0,1,2.815,"",NA,NA,NA,"leg",0,3.32,"5.503"
"1916","need","faucet",11,1,24,1,94,3.323,13,0.361111111111111,0,0,1,3.304,"",NA,NA,NA,"help",0,12.707,"16.616"
"1916","capital","figure",3,0,32,1,76,2.868,19,0.527777777777778,1,0,0,1.303,"leader",0,NA,23.188,"emperor",0,6.25,"26.255"
"1916","shrink","mafia",10,1,31,1,89,7.075,17,0.472222222222222,0,0,1,1.399,"",NA,NA,NA,"mafia",1,11.714,"15.232"
"1916","copy","bedroom",3,0,18,1,64,3.043,35,0.972222222222222,1,0,0,1.351,"bedroom",1,NA,7.372,"bump",0,17.762,"20.663"
"1916","grip","beach",12,1,35,1,41,5.795,31,0.861111111111111,1,0,0,3.015,"remind",0,NA,8.862,"beam",0,9.658,"28.12"
"1916","pea","bathtub",12,1,22,1,70,4.852,25,0.694444444444444,0,0,1,1.015,"",NA,NA,NA,"bathroom",0,3.138,"6.544"
"1916","visit","glove",2,0,19,1,21,3.753,4,0.111111111111111,0,0,1,5.208,"",NA,NA,NA,"jail",0,17.234,"19.399"
"1916","replace","roach",11,1,6,1,82,4.3,11,0.305555555555556,1,0,0,2.775,"bumper",0,NA,17.863,"roach",1,3.577,"6.359"
"1916","climax","saucer",11,1,33,1,63,3.036,33,0.916666666666667,1,0,0,1.911,"need",0,NA,9.583,"jump",0,17.867,"26.688"
"1916","fan","feature",1,0,27,1,100,3.835,29,0.805555555555556,1,0,0,10.103,"need",0,NA,9.702,"cool",0,7.833,"16.087"
"1916","bacon","feud",3,0,30,1,86,3.419,22,0.611111111111111,0,0,1,1.271,"",NA,NA,NA,"pig",0,10.674,"12.8"
"1916","biology","temper",2,0,5,1,19,2.571,36,1,1,0,0,1.839,"temper",1,NA,11.943,"temper",1,8.45,"11.752"
"1916","nerve","bumper",11,1,34,1,82,5.228,20,0.555555555555556,0,0,1,2.783,"",NA,NA,NA,"bump",0,6.593,"10.431"
"1916","pork","emperor",10,1,15,1,89,5.995,12,0.333333333333333,1,0,0,5.112,"grip",0,NA,16.253,"emperor",1,8.562,"11.991"
"1916","want","ascent",10,1,3,1,28,3.082,16,0.444444444444444,1,0,0,2.447,"clown",0,NA,20.729,"assent",0,9.138,"23.488"
"1916","remind","foam",2,0,20,1,23,4.785,6,0.166666666666667,0,0,1,1.463,"",NA,NA,NA,"memory",0,8.738,"13.528"
"1916","port","cinema",2,0,25,1,28,11.677,1,0.0277777777777778,1,0,0,-99,"floor",0,NA,22.781,"emperor",0,5.25,"8.64"
"1916","rock","milk",10,1,26,1,70,4.082,18,0.5,0,0,1,1.144,"",NA,NA,NA,"climb",0,9.626,"12.928"
"1916","bias","sirloin",1,0,1,1,37,5.057,8,0.222222222222222,0,0,1,1.759,"",NA,NA,NA,"prejudice",0,10.002,"15.472"
"1916","plant","worm",1,0,36,1,94,4.546,2,0.0555555555555556,0,0,1,11.745,"",NA,NA,NA,"feed",0,11.675,"17.672"
"1916","smother","surgery",3,0,7,1,34,4.435,5,0.138888888888889,0,0,1,4.59,"",NA,NA,NA,"suffocate",0,14.914,"18.648"
"1997","replace","roach",11,1,24,1,100,2.527,11,0.305555555555556,1,1,1,0.855,"reach",0,NA,7.07,"roach",1,11.353,"14.426"
"1997","plant","worm",1,0,2,1,100,1.79,17,0.472222222222222,0,1,0,0.717,"",NA,NA,NA,"worm",1,4.088,"6.221"
"1997","glue","force",11,1,34,1,100,2.065,13,0.361111111111111,1,1,1,0.66,"force",1,NA,8.562,"fetch",0,19.257,"21.757"
"1997","smother","surgery",3,0,25,1,100,3.84,3,0.0833333333333333,0,1,0,1.053,"",NA,NA,NA,"surgery ",0,12.162,"15.503"
"1997","copy","bedroom",3,0,7,1,100,7.537,33,0.916666666666667,0,1,0,0.991,"",NA,NA,NA,"bedroom",1,5.381,"8.304"
"1997","grip","beach",12,1,29,1,100,2.682,18,0.5,1,1,1,0.628,"beach",1,NA,8.764,"bleach",0,18.37,"21.398"
"1997","port","cinema",2,0,35,1,100,2.139,14,0.388888888888889,0,1,0,0.741,"",NA,NA,NA,"movie",0,15.713,"19.071"
"1997","rock","milk",10,1,28,1,100,14.497,10,0.277777777777778,0,1,0,1.055,"",NA,NA,NA,"milk",1,6.083,"8.126"
"1997","fee","chowder",3,0,26,1,100,23.773,25,0.694444444444444,0,1,0,0.856,"",NA,NA,NA,"chowder",1,5.121,"7.637"
"1997","knock","otter",12,1,17,1,100,2.05,7,0.194444444444444,1,1,1,1.059,"otter",1,NA,8.197,"otter",1,6.244,"8.287"
"1997","find","clown",2,0,3,1,100,2.442,9,0.25,0,1,0,0.892,"",NA,NA,NA,"clown",1,7.015,"9.23"
"1997","caring","skirt",1,0,21,1,100,2.218,34,0.944444444444444,0,1,0,1.033,"",NA,NA,NA,"steak",0,12.932,"15.766"
"1997","need","faucet",11,1,30,1,100,1.856,35,0.972222222222222,1,1,1,0.717,"faucet",1,NA,10.661,"faucet",1,5.275,"7.839"
"1997","prison","loaf",3,0,13,1,100,2.619,36,1,1,1,1,1.365,"loaf",1,NA,8.814,"loaf",1,7.346,"9.253"
"1997","mill","feast",12,1,12,1,100,1.988,29,0.805555555555556,1,1,1,0.701,"feast",1,NA,8.422,"feast",1,5.715,"7.903"
"1997","anger","decay",1,0,33,1,100,3.642,23,0.638888888888889,0,1,0,0.743,"",NA,NA,NA,"decay",1,5.845,"8.647"
"1997","chicken","beet",1,0,5,1,100,2.037,31,0.861111111111111,0,1,0,0.662,"",NA,NA,NA,"bait",0,8.776,"16.534"
"1997","visit","glove",2,0,18,1,100,1.985,30,0.833333333333333,0,1,0,0.82,"",NA,NA,NA,"glove",1,6.602,"14.629"
"1997","date","laugh",12,1,4,1,100,4.838,21,0.583333333333333,1,1,1,0.734,"laugh",1,NA,15.418,"loop",0,9.227,"11.121"
"1997","calf","annoy",2,0,15,1,100,2.047,27,0.75,0,1,0,0.846,"",NA,NA,NA,"annoy",1,5.184,"7.925"
"1997","process","joker",10,1,32,1,100,1.78,12,0.333333333333333,1,1,1,0.806,"cinema",0,NA,12.136,"joker",1,6.7,"8.694"
"1997","climax","saucer",11,1,10,1,100,3.03,2,0.0555555555555556,1,1,1,17.573,"saucer",1,NA,12.05,"saucer",1,5.603,"8.08"
"1997","remind","foam",2,0,11,1,100,2.21,26,0.722222222222222,0,1,0,0.807,"",NA,NA,NA,"form",0,7.849,"9.886"
"1997","pea","bathtub",12,1,9,1,100,12.854,24,0.666666666666667,1,1,1,0.844,"bathtub",1,NA,6.79,"bathtub",1,10.604,"14.198"
"1997","shrink","mafia",10,1,1,1,100,2.681,5,0.138888888888889,1,1,1,0.928,"mafia",1,NA,8.404,"mafia",1,8.609,"10.85"
"1997","want","ascent",10,1,23,1,100,2.104,22,0.611111111111111,1,1,1,0.855,"ascent ",0,NA,12.934,"ascent",1,7.549,"12.075"
"1997","pork","emperor",10,1,22,1,100,2.014,32,0.888888888888889,1,1,1,0.773,"emporer",0,NA,5.972,"emperor ",0,2.004,"8.158"
"1997","biology","temper",2,0,8,1,100,2.286,19,0.527777777777778,0,1,0,1.14,"",NA,NA,NA,"tamper",0,9.494,"14.142"
"1997","link","crisis",12,1,6,1,100,1.908,16,0.444444444444444,1,1,1,0.908,"crisis",1,NA,6.557,"crisis",1,5.525,"8.751"
"1997","bleach","ruin",10,1,36,1,100,2.345,28,0.777777777777778,1,1,1,0.861,"ruin",1,NA,18.635,"grip",0,15.377,"18.263"
"1997","bullet","walkway",11,1,14,1,100,2.295,15,0.416666666666667,1,1,1,0.846,"walkway",1,NA,11.504,"walkway",1,7.219,"10.399"
"1997","capital","figure",3,0,19,1,100,2.313,4,0.111111111111111,0,1,0,2.988,"",NA,NA,NA,"skip",0,12.037,"14.576"
"1997","nerve","bumper",11,1,16,1,100,2.326,6,0.166666666666667,1,1,1,0.847,"roach",0,NA,23.525,"bumper",1,8.96,"11.846"
"1997","bacon","feud",3,0,27,1,100,2.176,8,0.222222222222222,0,1,0,0.837,"",NA,NA,NA,"feud",1,5.1,"7.118"
"1997","bias","sirloin",1,0,31,1,100,4.705,1,0.0277777777777778,0,1,0,-99,"",NA,NA,NA,"skip",0,29.572,"31.711"
"1997","fan","feature",1,0,20,1,100,1.75,20,0.555555555555556,0,1,0,0.706,"",NA,NA,NA,"feather",0,12.125,"15.244"
"2009","smother","surgery",3,0,5,1,32,189.59,20,0.555555555555556,1,1,1,6.8,"surgery",1,NA,4.828,"surgery",1,3.072,"5.058"
"2009","date","laugh",12,1,34,1,34,7.172,22,0.611111111111111,1,1,1,1.496,"laugh",1,NA,8.636,"laugh",1,3.896,"8.7"
"2009","process","joker",10,1,32,1,37,4.63,28,0.777777777777778,1,1,1,0.678,"joker",1,NA,6.116,"joker",1,4.674,"6.334"
"2009","shrink","mafia",10,1,36,1,41,9.498,26,0.722222222222222,1,1,1,0.832,"mafia",1,NA,4.214,"mafia",1,4.362,"6.166"
"2009","climax","saucer",11,1,19,1,32,68.39,23,0.638888888888889,1,1,1,0.846,"saucer",1,NA,6.864,"saucer",1,4.852,"6.536"
"2009","copy","bedroom",3,0,11,1,42,7.898,21,0.583333333333333,1,1,1,1.524,"bedroom",1,NA,7.356,"bedroom",1,10.154,"12.654"
"2009","grip","beach",12,1,31,1,33,14.378,3,0.0833333333333333,0,1,0,2.046,"",NA,NA,NA,"beach",1,12.186,"13.87"
"2009","caring","skirt",1,0,18,1,32,11.442,5,0.138888888888889,0,1,0,0.87,"",NA,NA,NA,"skirt",1,22.274,"24.5"
"2009","prison","loaf",3,0,29,1,42,7.404,31,0.861111111111111,1,1,1,2.614,"loaf",1,NA,13.406,"loaf",1,4.562,"5.99"
"2009","visit","glove",2,0,9,1,38,18.546,10,0.277777777777778,0,1,0,0.96,"",NA,NA,NA,"glove",1,4.13,"5.464"
"2009","bias","sirloin",1,0,28,1,42,4.212,33,0.916666666666667,1,1,1,0.862,"sirloin",1,NA,8.258,"sirloin",1,10.868,"13.574"
"2009","link","crisis",12,1,33,1,32,10.386,13,0.361111111111111,0,1,0,0.862,"",NA,NA,NA,"crisis",1,6.19,"7.782"
"2009","calf","annoy",2,0,27,1,28,6.618,16,0.444444444444444,0,1,0,0.852,"",NA,NA,NA,"annoy",1,5.266,"8.486"
"2009","remind","foam",2,0,13,1,24,6.238,15,0.416666666666667,0,1,0,0.854,"",NA,NA,NA,"copy",0,9.072,"12.086"
"2009","pea","bathtub",12,1,6,1,29,10.602,17,0.472222222222222,0,1,0,0.806,"",NA,NA,NA,"bathtub",1,4.53,"8.406"
"2009","bullet","walkway",11,1,12,1,38,7,29,0.805555555555556,1,1,1,1.24,"walkway",1,NA,7.54,"walk",0,5.18,"6.662"
"2009","bacon","feud",3,0,1,1,29,33.784,12,0.333333333333333,0,1,0,0.918,"",NA,NA,NA,"feud",1,3.818,"6.574"
"2009","plant","worm",1,0,15,1,40,7.014,2,0.0555555555555556,0,1,0,23.052,"",NA,NA,NA,"pot",0,2.914,"4.622"
"2009","bleach","ruin",10,1,16,1,33,5.596,27,0.75,1,1,1,0.774,"ruin",1,NA,4.142,"ruin",1,2.23,"8.392"
"2009","nerve","bumper",11,1,14,1,38,6.562,32,0.888888888888889,1,1,1,1.048,"bumper",1,NA,5.42,"bumper",1,6.68,"8.406"
"2009","capital","figure",3,0,21,1,35,13.846,6,0.166666666666667,0,1,0,0.918,"",NA,NA,NA,"figure",1,4.604,"6.07"
"2009","glue","force",11,1,4,1,30,8.626,18,0.5,0,1,0,0.95,"",NA,NA,NA,"force",1,7.938,"10.158"
"2009","chicken","beet",1,0,22,1,30,7.042,11,0.305555555555556,0,1,0,1.102,"",NA,NA,NA,"figure",0,33.888,"35.594"
"2009","anger","decay",1,0,25,1,40,4.828,34,0.944444444444444,1,1,1,0.878,"decay",1,NA,10.606,"decay",1,4.078,"5.718"
"2009","knock","otter",12,1,7,1,41,10.514,7,0.194444444444444,0,1,0,1.146,"",NA,NA,NA,"otter",1,7.028,"8.654"
"2009","fan","feature",1,0,23,1,32,6.786,24,0.666666666666667,1,1,1,1.028,"feature",1,NA,12.306,"feature",1,2.666,"4.414"
"2009","find","clown",2,0,24,1,37,5.316,25,0.694444444444444,1,1,1,0.966,"clown",1,NA,14.502,"clown",1,37.164,"39.572"
"2009","rock","milk",10,1,2,1,35,4.41,36,1,1,1,1,1.046,"milk",1,NA,14.498,"milk",1,4.75,"6.91"
"2009","mill","feast",12,1,3,1,37,4.534,14,0.388888888888889,0,1,0,2.334,"",NA,NA,NA,"beet",0,11.438,"13.108"
"2009","need","faucet",11,1,8,1,36,4.48,35,0.972222222222222,1,1,1,7.692,"faucet",1,NA,15.404,"faucet",1,6.166,"8.03"
"2009","fee","chowder",3,0,26,1,44,9.174,1,0.0277777777777778,0,1,0,-99,"",NA,NA,NA,"chowder",1,6.176,"11.678"
"2009","port","cinema",2,0,20,1,32,4.14,19,0.527777777777778,1,1,1,1.262,"cinema",1,NA,8.918,"cinema",1,4.216,"5.88"
"2009","replace","roach",11,1,10,1,35,10.786,8,0.222222222222222,0,1,0,0.808,"",NA,NA,NA,"roach",1,16.89,"18.358"
"2009","want","ascent",10,1,17,1,58,3.938,30,0.833333333333333,1,1,1,0.79,"need",0,NA,50.552,"ascent",1,20.184,"22.346"
"2009","pork","emperor",10,1,30,1,33,3.732,9,0.25,0,1,0,0.838,"",NA,NA,NA,"emperor",1,14.834,"21.46"
"2009","biology","temper",2,0,35,1,37,21.512,4,0.111111111111111,0,1,0,0.904,"",NA,NA,NA,"temper",1,4.45,"5.942"
"2085","smother","surgery",3,0,24,1,91,3.248,26,0.722222222222222,1,1,1,0.781,"surgery",1,NA,8.969,"surgery",1,3.727,"6.62"
"2085","fee","chowder",3,0,16,1,78,3.936,14,0.388888888888889,1,1,1,1.575,"chowder",1,NA,6.822,"chowder",1,1.556,"5.253"
"2085","plant","worm",1,0,27,1,100,3.402,13,0.361111111111111,1,1,1,1.447,"worm",1,NA,3.178,"worm",1,1.504,"2.143"
"2085","remind","foam",2,0,10,1,71,4.018,7,0.194444444444444,1,1,1,2.053,"foam",1,NA,5.401,"foam",1,4.977,"5.752"
"2085","mill","feast",12,1,36,1,90,4.823,24,0.666666666666667,0,1,0,0.933,"",NA,NA,NA,"feast?",0,2.127,"8.639"
"2085","grip","beach",12,1,17,1,91,4.087,25,0.694444444444444,0,1,0,1.014,"",NA,NA,NA,"beach",1,17.51,"18.564"
"2085","copy","bedroom",3,0,34,1,82,5.863,8,0.222222222222222,1,1,1,2.703,"bedroom",1,NA,7.419,"bedroom",1,1.75,"3.113"
"2085","want","ascent",10,1,30,1,94,2.889,17,0.472222222222222,0,1,0,1.422,"",NA,NA,NA,"ascent",1,1.855,"8.261"
"2085","knock","otter",12,1,33,1,88,4.114,20,0.555555555555556,0,1,0,0.893,"",NA,NA,NA,"otter",1,6.271,"8.813"
"2085","need","faucet",11,1,35,1,94,3.556,19,0.527777777777778,0,1,0,1.11,"",NA,NA,NA,"faucet",1,2.462,"3.713"
"2085","chicken","beet",1,0,28,1,90,9.347,3,0.0833333333333333,0,1,0,2.602,"",NA,NA,NA,"beet",1,1.692,"2.412"
"2085","port","cinema",2,0,23,1,80,5.351,35,0.972222222222222,1,1,1,0.917,"cinema",1,NA,7.337,"cinema",1,6.604,"7.919"
"2085","glue","force",11,1,31,1,94,2.528,9,0.25,0,1,0,1.143,"",NA,NA,NA,"force",1,2.982,"4.808"
"2085","pork","emperor",10,1,6,1,84,4.887,30,0.833333333333333,1,1,1,0.752,"emperor",1,NA,12.965,"emperor",1,1.075,"3.261"
"2085","replace","roach",11,1,22,1,94,2.924,28,0.777777777777778,0,1,0,0.943,"",NA,NA,NA,"roach",1,1.48,"11.789"
"2085","visit","glove",2,0,20,1,78,4.315,33,0.916666666666667,1,1,1,2.348,"glove",1,NA,9.568,"glove",1,5.297,"6.576"
"2085","process","joker",10,1,7,1,95,7.007,16,0.444444444444444,0,1,0,0.94,"",NA,NA,NA,"joker",1,4.739,"5.498"
"2085","capital","figure",3,0,4,1,88,2.596,34,0.944444444444444,1,1,1,0.885,"figure",1,NA,4.048,"figure",1,1.185,"2.181"
"2085","climax","saucer",11,1,19,1,96,3.944,10,0.277777777777778,0,1,0,3.145,"",NA,NA,NA,"saucer",1,6.147,"6.984"
"2085","fan","feature",1,0,9,1,86,9.272,1,0.0277777777777778,1,1,1,-99,"feature",1,NA,3.641,"feature",1,1.293,"2.37"
"2085","shrink","mafia",10,1,12,1,89,4.648,2,0.0555555555555556,1,1,1,4.467,"mafia",1,NA,3.765,"mafia",1,1.61,"2.724"
"2085","bleach","ruin",10,1,32,1,98,5.47,5,0.138888888888889,0,1,0,4.674,"",NA,NA,NA,"ruin",1,2.29,"2.933"
"2085","link","crisis",12,1,3,1,96,2.634,18,0.5,0,1,0,1.153,"",NA,NA,NA,"crisis",1,3.182,"4.22"
"2085","biology","temper",2,0,2,1,83,4.291,32,0.888888888888889,1,1,1,1.899,"temper",1,NA,6.667,"temper",1,2.719,"7.976"
"2085","bullet","walkway",11,1,21,1,98,9.584,6,0.166666666666667,0,1,0,0.799,"",NA,NA,NA,"walkway",1,2.804,"5.563"
"2085","rock","milk",10,1,18,1,100,3.058,22,0.611111111111111,1,1,1,0.878,"milk",1,NA,3.589,"milk",1,1.519,"2.644"
"2085","prison","loaf",3,0,5,1,92,6.422,31,0.861111111111111,0,1,0,0.978,"",NA,NA,NA,"loaf",1,14.455,"15.293"
"2085","bias","sirloin",1,0,14,1,77,3.966,23,0.638888888888889,1,1,1,2.821,"sirloin",1,NA,8.314,"sirloin",1,1.19,"3.481"
"2085","caring","skirt",1,0,26,1,81,2.789,29,0.805555555555556,1,1,1,0.711,"skirt",1,NA,10.566,"skirt",1,2.64,"3.425"
"2085","anger","decay",1,0,25,1,92,3.241,11,0.305555555555556,1,1,1,0.816,"decay",1,NA,5.389,"decay",1,1.864,"2.871"
"2085","nerve","bumper",11,1,15,1,94,4.186,12,0.333333333333333,0,1,0,2.03,"",NA,NA,NA,"bumper",1,3.377,"7.681"
"2085","pea","bathtub",12,1,29,1,95,5.102,4,0.111111111111111,0,1,0,1.251,"",NA,NA,NA,"bathtub",1,2.178,"8.47"
"2085","calf","annoy",2,0,1,1,79,5.398,21,0.583333333333333,1,1,1,0.768,"annoy",1,NA,5.156,"annoy",1,1.433,"2.479"
"2085","find","clown",2,0,13,1,84,3.945,36,1,0,1,0,1.007,"",NA,NA,NA,"clown",1,5.45,"6.364"
"2085","date","laugh",12,1,11,1,100,3.013,15,0.416666666666667,0,1,0,1.129,"",NA,NA,NA,"laugh",1,6.604,"7.578"
"2085","bacon","feud",3,0,8,1,86,2.832,27,0.75,1,1,1,0.996,"feud",1,NA,3.461,"feud",1,1.277,"2.166"
"2231","date","laugh",12,1,10,1,65,3.582,20,0.555555555555556,0,1,0,4.133,"",NA,NA,NA,"Laugh",0,6.176,"9.57"
"2231","smother","surgery",3,0,19,1,75,2.804,7,0.194444444444444,1,1,1,1.255,"surgery",1,NA,10.452,"surgery",1,3.127,"10.572"
"2231","bullet","walkway",11,1,13,1,35,3.625,14,0.388888888888889,1,1,1,1.272,"walkway",1,NA,6.181,"walkway",1,1.808,"5.045"
"2231","link","crisis",12,1,29,1,29,3.546,3,0.0833333333333333,1,1,1,6.488,"crisis",1,NA,6.792,"disaster",0,5.899,"11.258"
"2231","biology","temper",2,0,33,1,30,14.213,1,0.0277777777777778,1,1,1,-99,"surgery",0,NA,14.765,"skip",0,7.133,"9.283"
"2231","remind","foam",2,0,27,1,10,3.875,25,0.694444444444444,0,1,0,0.998,"",NA,NA,NA,"skip",0,11.761,"13.902"
"2231","capital","figure",3,0,24,1,60,3.577,13,0.361111111111111,1,1,1,1.319,"skip",0,NA,15.301,"figure",1,11.316,"13.794"
"2231","grip","beach",12,1,26,1,30,2.491,4,0.111111111111111,1,1,1,1.201,"beach",1,NA,8.996,"beach",1,8.179,"10.742"
"2231","need","faucet",11,1,4,1,15,5.532,29,0.805555555555556,0,1,0,0.936,"",NA,NA,NA,"desire",0,6.587,"9.132"
"2231","mill","feast",12,1,16,1,45,2.258,26,0.722222222222222,0,1,0,1.036,"",NA,NA,NA,"bread",0,4.972,"8.368"
"2231","replace","roach",11,1,32,1,10,2.88,36,1,0,1,0,1.111,"",NA,NA,NA,"roach",1,3.674,"6.015"
"2231","glue","force",11,1,25,1,55,2.555,16,0.444444444444444,1,1,1,1.248,"force",1,NA,6.944,"force",1,12.341,"14.808"
"2231","copy","bedroom",3,0,22,1,40,2.126,34,0.944444444444444,0,1,0,1.309,"",NA,NA,NA,"bedroom",1,9.862,"12.918"
"2231","port","cinema",2,0,30,1,55,3.65,28,0.777777777777778,0,1,0,1.059,"",NA,NA,NA,"storm",0,3.284,"5.644"
"2231","visit","glove",2,0,21,1,15,4.005,19,0.527777777777778,0,1,0,1.178,"",NA,NA,NA,"milk",0,6.753,"10.411"
"2231","bleach","ruin",10,1,23,1,70,4.331,21,0.583333333333333,0,1,0,5.215,"",NA,NA,NA,"ruin",1,14.521,"16.829"
"2231","caring","skirt",1,0,36,1,15,3.836,18,0.5,1,1,1,1.389,"skip",0,NA,12.034,"skirt",1,12.158,"14.761"
"2231","find","clown",2,0,5,1,20,4.471,12,0.333333333333333,1,1,1,1.207,"clown",1,NA,9.91,"rock",0,6.288,"8.581"
"2231","bias","sirloin",1,0,7,1,30,2.481,32,0.888888888888889,0,1,0,1.482,"",NA,NA,NA,"skip",0,15.399,"17.903"
"2231","rock","milk",10,1,31,1,25,5.852,17,0.472222222222222,1,1,1,1.359,"skip",0,NA,8.645,"milk",1,2.831,"5.781"
"2231","climax","saucer",11,1,28,1,65,4.907,31,0.861111111111111,0,1,0,1.179,"",NA,NA,NA,"saucer",1,4.849,"9.468"
"2231","fee","chowder",3,0,9,1,30,3.319,9,0.25,1,1,1,1.334,"chowder",1,NA,9.888,"skip",0,9.538,"11.624"
"2231","anger","decay",1,0,8,1,75,6.755,2,0.0555555555555556,1,1,1,9.442,"decay",1,NA,14.869,"decay",1,9.663,"15.648"
"2231","fan","feature",1,0,35,1,35,3.292,22,0.611111111111111,0,1,0,1.294,"",NA,NA,NA,"skip",0,8.536,"11.799"
"2231","nerve","bumper",11,1,18,1,20,3.204,10,0.277777777777778,1,1,1,1.107,"laugh",0,NA,11.245,"skip",0,16.067,"19.226"
"2231","calf","annoy",2,0,3,1,30,3.666,6,0.166666666666667,1,1,1,1.334,"figure",0,NA,11.505,"annoy",1,8.204,"10.782"
"2231","pork","emperor",10,1,12,1,60,4.03,35,0.972222222222222,0,1,0,0.952,"",NA,NA,NA,"sirloin",0,2.784,"5.747"
"2231","process","joker",10,1,1,1,20,2.987,27,0.75,0,1,0,1.075,"",NA,NA,NA,"joker",1,11.848,"14.411"
"2231","chicken","beet",1,0,17,1,70,3.221,33,0.916666666666667,0,1,0,1.029,"",NA,NA,NA,"beet",1,7.076,"9.632"
"2231","plant","worm",1,0,15,1,80,4.704,24,0.666666666666667,0,1,0,1.302,"",NA,NA,NA,"worm",1,10.748,"13.272"
"2231","shrink","mafia",10,1,34,1,15,4.221,11,0.305555555555556,1,1,1,1.442,"skip",0,NA,13.772,"wrap",0,5.285,"7.97"
"2231","bacon","feud",3,0,20,1,25,5.335,5,0.138888888888889,1,1,1,1.344,"feast",0,NA,11.91,"feud",1,12.498,"15.038"
"2231","pea","bathtub",12,1,2,1,55,3.617,30,0.833333333333333,0,1,0,1.132,"",NA,NA,NA,"bath",0,3.718,"7.005"
"2231","knock","otter",12,1,6,1,25,2.893,8,0.222222222222222,1,1,1,1.248,"wood",0,NA,5.468,"otter",1,12.652,"16.356"
"2231","want","ascent",10,1,11,1,25,3.901,15,0.416666666666667,1,1,1,1.139,"need",0,NA,10.859,"need",0,11.757,"14.579"
"2231","prison","loaf",3,0,14,1,75,3.086,23,0.638888888888889,0,1,0,1.043,"",NA,NA,NA,"loaf",1,4.451,"7.475"
"2232","caring","skirt",1,0,2,1,64,2.836,6,0.166666666666667,0,0,1,1.612,"",NA,NA,NA,"thoughts",0,41.57,"45.671"
"2232","replace","roach",11,1,23,1,37,3.14,32,0.888888888888889,1,0,0,1.168,"faucet",0,NA,8.854,"roach",1,14.645,"20.874"
"2232","plant","worm",1,0,18,1,77,1.964,26,0.722222222222222,0,0,1,1.159,"",NA,NA,NA,"insects",0,22.989,"25.877"
"2232","bias","sirloin",1,0,12,1,26,3.435,28,0.777777777777778,1,0,0,4.372,"milk",0,NA,28.148,"School",0,40.836,"43.315"
"2232","smother","surgery",3,0,10,1,34,14.851,16,0.444444444444444,1,0,0,6.362,"saucer",0,NA,35.734,"pillow",0,33.109,"35.427"
"2232","nerve","bumper",11,1,4,1,73,2.662,9,0.25,0,0,1,1.611,"",NA,NA,NA,"bumper",1,21.936,"24.672"
"2232","mill","feast",12,1,1,1,74,3.065,8,0.222222222222222,0,0,1,1.147,"",NA,NA,NA,"feast",1,5.97,"7.459"
"2232","bullet","walkway",11,1,9,1,73,3.089,19,0.527777777777778,0,0,1,4.465,"",NA,NA,NA,"walkaway",0,11.898,"15.024"
"2232","visit","glove",2,0,20,1,63,5.424,30,0.833333333333333,1,0,0,1.454,"bother",0,NA,19.329,"home",0,24.28,"26.137"
"2232","remind","foam",2,0,21,1,21,3.199,12,0.333333333333333,1,0,0,1.194,"roach",0,NA,37.536,"think",0,26.913,"28.703"
"2232","capital","figure",3,0,32,1,69,2.536,27,0.75,1,0,0,1.683,"child",0,NA,29.718,"link",0,21.49,"23.324"
"2232","chicken","beet",1,0,8,1,63,4.574,3,0.0833333333333333,0,0,1,8.919,"",NA,NA,NA,"bake",0,26.806,"28.693"
"2232","fan","feature",1,0,35,1,32,2.957,23,0.638888888888889,0,0,1,1.468,"",NA,NA,NA,"hot",0,33.779,"35.223"
"2232","process","joker",10,1,6,1,65,6.151,34,0.944444444444444,1,0,0,1.632,"paper",0,NA,62.77,"repair",0,4.302,"8.315"
"2232","need","faucet",11,1,26,1,80,6.025,5,0.138888888888889,0,0,1,7.193,"",NA,NA,NA,"faucet",1,17.316,"19.642"
"2232","fee","chowder",3,0,7,1,25,2.305,13,0.361111111111111,1,0,0,1.206,"water",0,NA,26.969,"drive",0,3.502,"5.829"
"2232","rock","milk",10,1,19,1,80,2.609,10,0.277777777777778,0,0,1,3.409,"",NA,NA,NA,"milk",1,11.482,"13.133"
"2232","climax","saucer",11,1,17,1,69,3.491,7,0.194444444444444,0,0,1,2.438,"",NA,NA,NA,"saucer",1,9.597,"11.852"
"2232","port","cinema",2,0,28,1,25,3.773,17,0.472222222222222,1,0,0,253.529,"beach",0,NA,34.794,"sea",0,24.006,"25.557"
"2232","biology","temper",2,0,27,1,26,3.495,4,0.111111111111111,1,0,0,2.891,"glasses",0,NA,7.52,"learn",0,5.165,"10.913"
"2232","knock","otter",12,1,25,1,75,10.678,35,0.972222222222222,1,0,0,1.22,"rock",0,NA,6.709,"door",0,25.756,"27.261"
"2232","find","clown",2,0,31,1,71,1.862,18,0.5,0,0,1,1.366,"",NA,NA,NA,"help",0,20.979,"22.709"
"2232","grip","beach",12,1,22,1,68,2.706,11,0.305555555555556,0,0,1,1.783,"",NA,NA,NA,"beach",1,13.159,"15.254"
"2232","glue","force",11,1,11,1,90,2.506,14,0.388888888888889,0,0,1,1.88,"",NA,NA,NA,"force",1,37.365,"39.415"
"2232","anger","decay",1,0,14,1,38,1.461,24,0.666666666666667,1,0,0,5.113,"beef",0,NA,34.705,"run",0,5.13,"6.495"
"2232","shrink","mafia",10,1,33,1,79,5.752,15,0.416666666666667,0,0,1,2.818,"",NA,NA,NA,"mafia",1,19.724,"21.827"
"2232","bacon","feud",3,0,30,1,24,3.003,2,0.0555555555555556,1,0,0,5.257,"emporer",0,NA,10.95,"tough",0,6.302,"8.155"
"2232","copy","bedroom",3,0,29,1,30,5.062,25,0.694444444444444,1,0,0,1.709,"paste",0,NA,6.793,"write",0,25.377,"27.03"
"2232","calf","annoy",2,0,15,1,25,2.491,29,0.805555555555556,1,0,0,1.182,"beach",0,NA,29.635,"chicken",0,4.223,"9.534"
"2232","link","crisis",12,1,5,1,85,2.522,22,0.611111111111111,0,0,1,1.951,"",NA,NA,NA,"crisis",1,18.165,"21.609"
"2232","prison","loaf",3,0,16,1,28,4.434,1,0.0277777777777778,0,0,1,-99,"",NA,NA,NA,"feast",0,19.393,"21.741"
"2232","want","ascent",10,1,13,1,60,2.369,20,0.555555555555556,0,0,1,3.879,"",NA,NA,NA,"ascent",1,17.949,"20.304"
"2232","pork","emperor",10,1,36,1,69,2.442,33,0.916666666666667,1,0,0,1.989,"emporer",0,NA,4.916,"emporer",0,1.706,"4.307"
"2232","pea","bathtub",12,1,3,1,68,3.226,31,0.861111111111111,1,0,0,1.856,"bathtub",1,NA,8.21,"bathtub",1,19.901,"23.491"
"2232","bleach","ruin",10,1,24,1,82,4.489,21,0.583333333333333,0,0,1,1.623,"",NA,NA,NA,"ruin",1,8.273,"9.887"
"2232","date","laugh",12,1,34,1,98,3.649,36,1,1,0,0,1.463,"birthday",0,NA,6.165,"laugh",1,1.953,"3.928"
"2287","date","laugh",12,1,27,1,65,5.271,34,0.944444444444444,1,1,1,0.938,"laugh",1,NA,3.984,"laugh",1,5.41,"7.924"
"2287","bullet","walkway",11,1,14,1,25,8.699,24,0.666666666666667,1,1,1,1.295,"walkway",1,NA,4.601,"walkway",1,1.864,"4.744"
"2287","prison","loaf",3,0,16,1,76,6.686,15,0.416666666666667,0,1,0,1.004,"",NA,NA,NA,"loaf",1,6.48,"8.245"
"2287","want","ascent",10,1,31,1,5,6.199,29,0.805555555555556,1,1,1,0.813,"skip",0,NA,15.36,"skip",0,6.671,"8.84"
"2287","smother","surgery",3,0,13,1,30,7.181,31,0.861111111111111,1,1,1,0.898,"surgery",1,NA,19.292,"surgery",1,2.945,"5.767"
"2287","process","joker",10,1,8,1,86,9.648,25,0.694444444444444,1,1,1,1.078,"skip",0,NA,11.069,"skip",0,15.375,"17.5"
"2287","fee","chowder",3,0,35,1,84,4.972,27,0.75,1,1,1,1.099,"chowder",1,NA,12.166,"chowder",1,6.184,"8.899"
"2287","grip","beach",12,1,32,1,92,6.401,9,0.25,0,1,0,1.24,"",NA,NA,NA,"beach",1,17.397,"19.845"
"2287","mill","feast",12,1,12,1,46,14.92,1,0.0277777777777778,0,1,0,-99,"",NA,NA,NA,"feast",1,13.238,"15.221"
"2287","remind","foam",2,0,20,1,77,7.943,7,0.194444444444444,1,1,1,1.304,"foam",1,NA,6.538,"foam",1,11.418,"13.73"
"2287","copy","bedroom",3,0,33,1,85,5.899,32,0.888888888888889,1,1,1,0.972,"bedroom",1,NA,15.534,"bedroom",1,3.973,"6.341"
"2287","anger","decay",1,0,6,1,64,6.48,14,0.388888888888889,0,1,0,1.667,"",NA,NA,NA,"decay",1,5.387,"7.638"
"2287","calf","annoy",2,0,15,1,30,4.944,23,0.638888888888889,0,1,0,1.26,"",NA,NA,NA,"skip",0,38.396,"40.352"
"2287","pea","bathtub",12,1,4,1,88,6.218,30,0.833333333333333,1,1,1,0.909,"bathtub",1,NA,7.349,"bathtub",1,29.673,"32.75"
"2287","link","crisis",12,1,18,1,48,6.341,33,0.916666666666667,1,1,1,0.876,"crisis",1,NA,4.495,"crisis",1,2.048,"5.094"
"2287","port","cinema",2,0,24,1,29,6.418,28,0.777777777777778,1,1,1,0.846,"skip",0,NA,3.821,"cinema",1,3.339,"5.713"
"2287","rock","milk",10,1,9,1,87,6.824,5,0.138888888888889,0,1,0,1.709,"",NA,NA,NA,"milk",1,1.679,"3.56"
"2287","nerve","bumper",11,1,22,1,75,7.564,10,0.277777777777778,1,1,1,1.075,"bumper",1,NA,7.981,"bumper",1,17.439,"19.678"
"2287","plant","worm",1,0,21,1,92,5.655,26,0.722222222222222,1,1,1,1.003,"worm",1,NA,4.122,"worm",1,2.784,"4.601"
"2287","climax","saucer",11,1,7,1,21,7.07,12,0.333333333333333,0,1,0,0.94,"",NA,NA,NA,"skip",0,1.815,"4.026"
"2287","capital","figure",3,0,36,1,42,13.804,3,0.0833333333333333,0,1,0,1.039,"",NA,NA,NA,"skip",0,1.839,"3.959"
"2287","fan","feature",1,0,29,1,71,5.865,16,0.444444444444444,0,1,0,1.108,"",NA,NA,NA,"feature",1,7.754,"10.325"
"2287","knock","otter",12,1,26,1,37,9.427,2,0.0555555555555556,1,1,1,7.966,"milk",0,NA,17.676,"otter",1,2.918,"5.624"
"2287","biology","temper",2,0,10,1,61,7.043,22,0.611111111111111,0,1,0,0.98,"",NA,NA,NA,"temper",1,5.085,"7.152"
"2287","caring","skirt",1,0,1,1,40,7.82,18,0.5,1,1,1,1.033,"skirt",1,NA,9.23,"skirt",1,5.954,"9.402"
"2287","visit","glove",2,0,34,1,74,5.767,20,0.555555555555556,0,1,0,1.001,"",NA,NA,NA,"glove",1,2.355,"4.317"
"2287","bacon","feud",3,0,19,1,44,7.81,4,0.111111111111111,0,1,0,2.329,"",NA,NA,NA,"fued",0,3.224,"4.721"
"2287","shrink","mafia",10,1,28,1,70,9.81,6,0.166666666666667,0,1,0,1.011,"",NA,NA,NA,"skip",0,8.468,"10.55"
"2287","bias","sirloin",1,0,23,1,3,6.233,36,1,1,1,1,1.128,"sirloin",1,NA,11.062,"sirloin",1,5.869,"10.053"
"2287","replace","roach",11,1,30,1,69,6.722,17,0.472222222222222,0,1,0,1.294,"",NA,NA,NA,"roach",1,11.453,"13.713"
"2287","chicken","beet",1,0,3,1,72,7.132,13,0.361111111111111,1,1,1,1.083,"beet",1,NA,3.797,"beet",1,6.052,"7.761"
"2287","find","clown",2,0,2,1,86,5.528,35,0.972222222222222,1,1,1,1.244,"clown",1,NA,7.33,"clown",1,2.993,"4.965"
"2287","glue","force",11,1,5,1,39,5.607,11,0.305555555555556,0,1,0,0.932,"",NA,NA,NA,"force",1,10.901,"12.719"
"2287","need","faucet",11,1,25,1,60,5.945,21,0.583333333333333,0,1,0,1.138,"",NA,NA,NA,"skip",0,8.824,"11.15"
"2287","bleach","ruin",10,1,17,1,21,6.835,8,0.222222222222222,0,1,0,1.185,"",NA,NA,NA,"ruin",1,10.287,"12.044"
"2287","pork","emperor",10,1,11,1,45,9.866,19,0.527777777777778,0,1,0,1.427,"",NA,NA,NA,"skip",0,16.015,"18.154"
"2474","anger","decay",1,0,4,1,43,3.006,8,0.222222222222222,1,0,0,1.19,"decay",1,NA,11.036,"upset",0,21.934,"24.533"
"2474","biology","temper",2,0,34,1,60,2.195,21,0.583333333333333,1,0,0,1.31,"process",0,NA,12.06,"plant",0,44.596,"47.667"
"2474","pea","bathtub",12,1,23,1,87,3.013,19,0.527777777777778,0,0,1,1.016,"",NA,NA,NA,"bathtub",1,12.987,"17.171"
"2474","replace","roach",11,1,6,1,57,2.693,4,0.111111111111111,1,0,0,1.007,"faucet",0,NA,20.463,"remind",0,27.186,"30.102"
"2474","want","ascent",10,1,12,1,72,3.312,18,0.5,0,0,1,0.801,"",NA,NA,NA,"need",0,17.051,"19.167"
"2474","port","cinema",2,0,11,1,56,1.96,36,1,1,0,0,1.164,"cloud",0,NA,10.416,"chowder",0,6.707,"10.215"
"2474","shrink","mafia",10,1,36,1,53,1.472,27,0.75,1,0,0,1.039,"mafia",1,NA,7.98,"glove",0,23.515,"26.318"
"2474","fee","chowder",3,0,21,1,38,2.7,11,0.305555555555556,1,0,0,0.887,"saucer",0,NA,14.682,"bank",0,13.826,"16.502"
"2474","capital","figure",3,0,20,1,61,2.737,30,0.833333333333333,1,0,0,1.171,"fund",0,NA,5.423,"figure",1,7.019,"9.599"
"2474","knock","otter",12,1,27,1,38,2.679,23,0.638888888888889,0,0,1,2.079,"",NA,NA,NA,"want",0,19.483,"21.883"
"2474","visit","glove",2,0,2,1,74,2.692,10,0.277777777777778,0,0,1,1.178,"",NA,NA,NA,"recall",0,2.528,"5.024"
"2474","bullet","walkway",11,1,35,1,58,2.543,25,0.694444444444444,0,0,1,0.908,"",NA,NA,NA,"walkway",1,10.404,"14.501"
"2474","process","joker",10,1,26,1,65,2.611,22,0.611111111111111,0,0,1,2.039,"",NA,NA,NA,"jokes",0,7.335,"10.691"
"2474","plant","worm",1,0,32,1,83,2.161,33,0.916666666666667,0,0,1,0.863,"",NA,NA,NA,"jar",0,6.403,"8.564"
"2474","bacon","feud",3,0,25,1,72,2.169,12,0.333333333333333,0,0,1,1.27,"",NA,NA,NA,"food",0,10.175,"13.335"
"2474","nerve","bumper",11,1,14,1,58,2.463,34,0.944444444444444,1,0,0,1.199,"notice",0,NA,19.947,"down",0,7.384,"10.327"
"2474","bleach","ruin",10,1,33,1,90,2.239,15,0.416666666666667,0,0,1,0.879,"",NA,NA,NA,"roach",0,24.152,"27.284"
"2474","prison","loaf",3,0,17,1,28,1.516,20,0.555555555555556,1,0,0,0.96,"loaf",1,NA,5.959,"loaf",1,1.851,"4.463"
"2474","caring","skirt",1,0,16,1,36,2.009,26,0.722222222222222,1,0,0,1.172,"skirt",1,NA,8.431,"friend",0,25.987,"29.136"
"2474","glue","force",11,1,29,1,32,2.015,14,0.388888888888889,1,0,0,0.708,"faucet",0,NA,12.996,"bullet",0,10.659,"13.291"
"2474","find","clown",2,0,22,1,45,2.167,29,0.805555555555556,1,0,0,1.103,"lost",0,NA,12.489,"move",0,15.957,"18.41"
"2474","bias","sirloin",1,0,24,1,69,9.959,1,0.0277777777777778,1,0,0,-99,"sirloin",1,NA,9.77,"class",0,2.801,"4.874"
"2474","date","laugh",12,1,7,1,91,2.504,35,0.972222222222222,1,0,0,1.623,"laugh",1,NA,6.516,"funny",0,3.231,"6.715"
"2474","rock","milk",10,1,18,1,61,1.796,28,0.777777777777778,0,0,1,0.947,"",NA,NA,NA,"force",0,17.17,"19.459"
"2474","climax","saucer",11,1,15,1,80,1.908,31,0.861111111111111,0,0,1,1.299,"",NA,NA,NA,"saucer",1,6.584,"9.367"
"2474","copy","bedroom",3,0,19,1,74,2.435,2,0.0555555555555556,0,0,1,7.274,"",NA,NA,NA,"down",0,2.263,"5.439"
"2474","pork","emperor",10,1,8,1,72,2.246,5,0.138888888888889,0,0,1,1.191,"",NA,NA,NA,"empire",0,12.04,"16.055"
"2474","smother","surgery",3,0,30,1,69,2.012,13,0.361111111111111,0,0,1,1.023,"",NA,NA,NA,"nurse",0,5.847,"7.927"
"2474","mill","feast",12,1,1,1,57,2.187,16,0.444444444444444,1,0,0,1.115,"loaf",0,NA,24.349,"bread",0,15.758,"19.594"
"2474","chicken","beet",1,0,10,1,37,2.741,17,0.472222222222222,1,0,0,0.944,"beet",1,NA,4.704,"beet",1,2.203,"4.371"
"2474","fan","feature",1,0,13,1,42,2.126,24,0.666666666666667,1,0,0,2.467,"fun",0,NA,17.908,"favorite",0,2.848,"6.641"
"2474","grip","beach",12,1,31,1,42,2.33,7,0.194444444444444,1,0,0,1.179,"force",0,NA,9.104,"force",0,3.776,"5.771"
"2474","remind","foam",2,0,9,1,57,1.992,32,0.888888888888889,0,0,1,1.007,"",NA,NA,NA,"basket",0,18.027,"20.739"
"2474","link","crisis",12,1,28,1,60,2.25,9,0.25,0,0,1,2.235,"",NA,NA,NA,"sauce",0,12.968,"15.452"
"2474","need","faucet",11,1,3,1,67,2.163,3,0.0833333333333333,0,0,1,1.418,"",NA,NA,NA,"friend",0,11.442,"14.531"
"2474","calf","annoy",2,0,5,1,71,1.695,6,0.166666666666667,0,0,1,1.039,"",NA,NA,NA,"mill",0,22.343,"24.067"
"2544","prison","loaf",3,0,19,1,1,2.268,11,0.305555555555556,0,0,1,0.728,"",NA,NA,NA,"SKIP",0,11.606,"13.808"
"2544","glue","force",11,1,20,1,17,4.348,28,0.777777777777778,1,0,0,2.175,"rock",0,NA,4.933,"beach",0,12.056,"13.751"
"2544","capital","figure",3,0,33,1,1,1.932,16,0.444444444444444,0,0,1,0.887,"",NA,NA,NA,"SKIP",0,12.598,"14.534"
"2544","pork","emperor",10,1,23,1,17,3.876,5,0.138888888888889,0,0,1,1.983,"",NA,NA,NA,"emporer",0,4.302,"6.351"
"2544","date","laugh",12,1,22,1,15,3.276,31,0.861111111111111,1,0,0,0.87,"laugh",1,NA,5.855,"laugh",1,4.12,"5.696"
"2544","mill","feast",12,1,4,1,15,11.747,23,0.638888888888889,1,0,0,1.8,"feast",1,NA,3.558,"feast",1,5.028,"6.487"
"2544","climax","saucer",11,1,16,1,12,5.1,34,0.944444444444444,1,0,0,0.863,"saucer",1,NA,3.822,"saucer",1,3.702,"5.48"
"2544","caring","skirt",1,0,31,1,1,2.083,27,0.75,0,0,1,1.407,"",NA,NA,NA,"SKIP",0,44.355,"45.934"
"2544","knock","otter",12,1,2,1,11,6.891,29,0.805555555555556,1,0,0,1.448,"otter",1,NA,4.431,"SKIP",0,8.104,"9.798"
"2544","replace","roach",11,1,29,1,17,5.053,8,0.222222222222222,1,0,0,0.847,"faucet",0,NA,4.569,"light",0,5.174,"9.311"
"2544","pea","bathtub",12,1,27,1,17,4.428,19,0.527777777777778,1,0,0,0.855,"bathtub",1,NA,4.294,"bathtub",1,2.036,"7.176"
"2544","plant","worm",1,0,6,1,1,2.3,21,0.583333333333333,0,0,1,0.927,"",NA,NA,NA,"green",0,15.432,"17.223"
"2544","calf","annoy",2,0,26,1,1,1.839,26,0.722222222222222,0,0,1,1.166,"",NA,NA,NA,"skip",0,4.717,"6.247"
"2544","biology","temper",2,0,13,1,1,1.789,14,0.388888888888889,0,0,1,0.848,"",NA,NA,NA,"skip",0,51.494,"55.27"
"2544","copy","bedroom",3,0,35,1,1,3.444,7,0.194444444444444,0,0,1,4.031,"",NA,NA,NA,"printer",0,6.199,"7.903"
"2544","fan","feature",1,0,34,1,1,1.948,36,1,0,0,1,0.647,"",NA,NA,NA,"ascent",0,14.924,"16.559"
"2544","remind","foam",2,0,18,1,1,2.077,25,0.694444444444444,0,0,1,0.999,"",NA,NA,NA,"foam",1,3.65,"5.344"
"2544","nerve","bumper",11,1,1,1,14,4.397,33,0.916666666666667,1,0,0,0.952,"otter",0,NA,5.139,"bumper",1,1.962,"4.464"
"2544","find","clown",2,0,11,1,1,2.077,9,0.25,0,0,1,1.047,"",NA,NA,NA,"clown",1,3.18,"4.719"
"2544","link","crisis",12,1,10,1,19,4.237,15,0.416666666666667,1,0,0,0.648,"drain",0,NA,29.228,"crisis",1,2.395,"4.695"
"2544","bullet","walkway",11,1,21,1,11,5.271,1,0.0277777777777778,0,0,1,-99,"",NA,NA,NA,"walkway",1,13.595,"17.904"
"2544","fee","chowder",3,0,8,1,1,2.381,32,0.888888888888889,0,0,1,1.567,"",NA,NA,NA,"joker",0,19.186,"21.015"
"2544","bias","sirloin",1,0,24,1,1,1.683,4,0.111111111111111,0,0,1,1.865,"",NA,NA,NA,"nerve",0,27.112,"29.571"
"2544","smother","surgery",3,0,9,1,1,2.405,3,0.0833333333333333,0,0,1,2.872,"",NA,NA,NA,"pork",0,12.048,"14.062"
"2544","anger","decay",1,0,15,1,1,1.917,10,0.277777777777778,0,0,1,0.72,"",NA,NA,NA,"traffic",0,42.62,"45.531"
"2544","shrink","mafia",10,1,32,1,17,2.773,13,0.361111111111111,1,0,0,0.719,"mafia",1,NA,3.453,"mafia",1,8.765,"11.744"
"2544","visit","glove",2,0,30,1,1,7.323,2,0.0555555555555556,1,0,0,2.544,"lake",0,NA,24.237,"park",0,11.439,"13.007"
"2544","port","cinema",2,0,14,1,1,2.204,6,0.166666666666667,1,0,0,0.824,"mouse",0,NA,8.859,"skip",0,6.137,"7.614"
"2544","process","joker",10,1,28,1,14,4.421,24,0.666666666666667,1,0,0,1.952,"joker",1,NA,4.166,"joker",1,3.506,"5.648"
"2544","rock","milk",10,1,17,1,15,3.379,12,0.333333333333333,1,0,0,2.752,"glue",0,NA,6.456,"skip",0,10.008,"12.885"
"2544","need","faucet",11,1,7,1,17,3.188,35,0.972222222222222,1,0,0,1.815,"faucet",1,NA,6.478,"faucet",1,4.495,"6.256"
"2544","bleach","ruin",10,1,5,1,12,4.285,22,0.611111111111111,1,0,0,0.815,"clothes",0,NA,9.496,"ruin",1,2.379,"4.056"
"2544","want","ascent",10,1,36,1,16,3.292,17,0.472222222222222,1,0,0,1.623,"pork",0,NA,9.171,"ascent",1,2.159,"4.063"
"2544","chicken","beet",1,0,12,1,1,2.422,20,0.555555555555556,0,0,1,0.647,"",NA,NA,NA,"beet",1,4.016,"5.191"
"2544","grip","beach",12,1,25,1,15,3.972,30,0.833333333333333,1,0,0,1.033,"beach",1,NA,4.468,"date",0,7.2,"8.094"
"2544","bacon","feud",3,0,3,1,1,2.573,18,0.5,0,0,1,1.623,"",NA,NA,NA,"crisis",0,11.719,"13.72"
"2553","climax","saucer",11,1,33,1,1,6.108,35,0.972222222222222,1,1,1,1.606,"?",0,NA,3.55,"?",0,10.092,"12.038"
"2553","fan","feature",1,0,14,1,81,3.476,11,0.305555555555556,1,1,1,2.334,"find",0,NA,12.1,"?",0,3.748,"5.702"
"2553","shrink","mafia",10,1,8,1,1,2.58,21,0.583333333333333,1,1,1,0.992,"Mafia",0,NA,5.79,"?",0,4.876,"6.638"
"2553","chicken","beet",1,0,26,1,89,3.17,9,0.25,1,1,1,5.518,"beets",0,NA,5.948,"beets",0,2.562,"5.278"
"2553","glue","force",11,1,13,1,1,2.646,27,0.75,0,1,0,8.222,"",NA,NA,NA,"?",0,12.378,"13.598"
"2553","smother","surgery",3,0,20,1,1,2.46,8,0.222222222222222,0,1,0,13.54,"",NA,NA,NA,"?",0,2.146,"3.636"
"2553","rock","milk",10,1,23,1,93,3.612,16,0.444444444444444,0,1,0,21.686,"",NA,NA,NA,"cloth",0,3.73,"6.644"
"2553","copy","bedroom",3,0,36,1,1,13.814,5,0.138888888888889,0,1,0,2.022,"",NA,NA,NA,"?",0,4.02,"6.126"
"2553","process","joker",10,1,29,1,1,2.486,22,0.611111111111111,1,1,1,7.038,"?",0,NA,12.234,"?",0,2.54,"4.742"
"2553","port","cinema",2,0,6,1,1,2.602,13,0.361111111111111,1,1,1,3.862,"?",0,NA,6.234,"?",0,2.428,"3.782"
"2553","nerve","bumper",11,1,4,1,1,15.348,26,0.722222222222222,0,1,0,13.182,"",NA,NA,NA,"?",0,2.142,"3.694"
"2553","grip","beach",12,1,5,1,1,6.906,10,0.277777777777778,0,1,0,2.726,"",NA,NA,NA,"?",0,3.18,"4.806"
"2553","plant","worm",1,0,27,1,100,8.504,7,0.194444444444444,1,1,1,1.352,"worm",1,NA,5.312,"worm",1,2.196,"4.942"
"2553","prison","loaf",3,0,18,1,1,7.402,29,0.805555555555556,1,1,1,1.232,"?",0,NA,4.54,"?",0,2.596,"3.798"
"2553","capital","figure",3,0,32,1,1,30.708,33,0.916666666666667,1,1,1,3.254,"?",0,NA,9.866,"?",0,2.02,"3.214"
"2553","remind","foam",2,0,9,1,1,10.068,36,1,1,1,1,4.638,"?",0,NA,3.99,"?",0,2.24,"3.54"
"2553","link","crisis",12,1,16,1,1,7.18,23,0.638888888888889,0,1,0,0.854,"",NA,NA,NA,"?",0,2.546,"3.82"
"2553","bacon","feud",3,0,15,1,1,6.084,34,0.944444444444444,1,1,1,1.528,"?",0,NA,4.326,"?",0,2.9,"4.806"
"2553","mill","feast",12,1,31,1,1,1037.878,4,0.111111111111111,0,1,0,2.198,"",NA,NA,NA,"water",0,4.17,"6.862"
"2553","knock","otter",12,1,28,1,1,4.112,1,0.0277777777777778,0,1,0,-99,"",NA,NA,NA,"?",0,1.788,"3.056"
"2553","fee","chowder",3,0,12,1,1,2.618,14,0.388888888888889,1,1,1,2.544,"?",0,NA,39.86,"?",0,1.668,"3.088"
"2553","date","laugh",12,1,19,1,1,6.922,17,0.472222222222222,1,1,1,1.654,"?",0,NA,4.046,"?",0,2.194,"3.726"
"2553","visit","glove",2,0,30,1,1,3.7,24,0.666666666666667,1,1,1,8.598,"?",0,NA,6.38,"?",0,4.574,"5.806"
"2553","anger","decay",1,0,3,1,1,2.548,32,0.888888888888889,1,1,1,1.39,"?",0,NA,9.248,"?",0,2.164,"3.43"
"2553","need","faucet",11,1,2,1,1,3.844,30,0.833333333333333,0,1,0,8.254,"",NA,NA,NA,"?",0,1.916,"3.366"
"2553","bleach","ruin",10,1,10,1,1,6.196,25,0.694444444444444,0,1,0,2.046,"",NA,NA,NA,"?",0,3.408,"5.018"
"2553","biology","temper",2,0,17,1,1,4.276,19,0.527777777777778,0,1,0,35.662,"",NA,NA,NA,"?",0,1.922,"3.132"
"2553","find","clown",2,0,1,1,1,3.188,12,0.333333333333333,0,1,0,2.432,"",NA,NA,NA,"?",0,2.932,"8.95"
"2553","want","ascent",10,1,25,1,1,6.25,20,0.555555555555556,0,1,0,1.208,"",NA,NA,NA,"?",0,2.564,"8.342"
"2553","bias","sirloin",1,0,11,1,1,14.578,6,0.166666666666667,0,1,0,2.732,"",NA,NA,NA,"?",0,2.156,"3.47"
"2553","replace","roach",11,1,34,1,73,2.452,31,0.861111111111111,1,1,1,10.924,"ruin",0,NA,5.07,"?",0,2.404,"3.75"
"2553","calf","annoy",2,0,21,1,1,26.786,2,0.0555555555555556,0,1,0,7.1,"",NA,NA,NA,"?",0,9.042,"10.566"
"2553","caring","skirt",1,0,24,1,1,2.496,15,0.416666666666667,0,1,0,2.31,"",NA,NA,NA,"?",0,1.978,"3.246"
"2553","bullet","walkway",11,1,22,1,1,12.54,28,0.777777777777778,1,1,1,12.214,"?",0,NA,4.964,"?",0,3.388,"4.776"
"2553","pea","bathtub",12,1,7,1,80,8.332,18,0.5,1,1,1,3.624,"bathtub",1,NA,6.358,"?",0,3.466,"5.286"
"2553","pork","emperor",10,1,35,1,1,13.834,3,0.0833333333333333,0,1,0,3.12,"",NA,NA,NA,"?",0,2.32,"3.644"
"2730","shrink","mafia",10,1,12,1,15,1.442,3,0.0833333333333333,1,0,0,1.863,"roach",0,NA,4.885,"SKIP",0,1.676,"3.531"
"2730","rock","milk",10,1,1,1,30,14.874,31,0.861111111111111,0,0,1,0.664,"",NA,NA,NA,"house",0,2.128,"3.503"
"2730","mill","feast",12,1,3,1,13,2.688,1,0.0277777777777778,0,0,1,-99,"",NA,NA,NA,"road",0,1.923,"4.943"
"2730","bullet","walkway",11,1,8,1,11,1.404,17,0.472222222222222,1,0,0,0.591,"house",0,NA,5.109,"SKIP",0,2.273,"5.023"
"2730","pork","emperor",10,1,7,1,42,1.516,16,0.444444444444444,0,0,1,0.759,"",NA,NA,NA,"emperor",1,1.418,"11.68"
"2730","need","faucet",11,1,21,1,19,5.784,22,0.611111111111111,1,0,0,0.607,"bleach",0,NA,4.824,"cinema",0,8.633,"10.535"
"2730","smother","surgery",3,0,33,1,26,107.193,23,0.638888888888889,0,0,1,0.575,"",NA,NA,NA,"SKIP",0,1.602,"3.919"
"2730","nerve","bumper",11,1,24,1,18,1.572,26,0.722222222222222,0,0,1,0.744,"",NA,NA,NA,"flower",0,3.53,"5.248"
"2730","process","joker",10,1,4,1,34,2.034,35,0.972222222222222,0,0,1,0.576,"",NA,NA,NA,"train",0,1.247,"2.526"
"2730","calf","annoy",2,0,26,1,22,1.341,29,0.805555555555556,0,0,1,0.888,"",NA,NA,NA,"SKIP",0,1.354,"2.743"
"2730","plant","worm",1,0,11,1,17,1.339,36,1,0,0,1,0.576,"",NA,NA,NA,"SKIP",0,0.995,"2.464"
"2730","pea","bathtub",12,1,27,1,28,1.419,25,0.694444444444444,0,0,1,0.632,"",NA,NA,NA,"SKIP",0,4.073,"5.807"
"2730","biology","temper",2,0,34,1,18,1.443,24,0.666666666666667,1,0,0,1.063,"tree",0,NA,6.671,"roach",0,5.489,"7.023"
"2730","date","laugh",12,1,5,1,34,105.466,33,0.916666666666667,0,0,1,0.591,"",NA,NA,NA,"mountain",0,15.169,"17.111"
"2730","prison","loaf",3,0,17,1,19,1.362,28,0.777777777777778,0,0,1,0.704,"",NA,NA,NA,"SKIP",0,0.915,"2.456"
"2730","replace","roach",11,1,23,1,19,1.153,14,0.388888888888889,0,0,1,0.984,"",NA,NA,NA,"SKIP",0,0.768,"2.51"
"2730","link","crisis",12,1,2,1,16,5.443,7,0.194444444444444,1,0,0,1.32,"milk",0,NA,3.308,"SKIP",0,0.833,"2.496"
"2730","climax","saucer",11,1,28,1,21,1.476,34,0.944444444444444,0,0,1,0.696,"",NA,NA,NA,"SKIP",0,1.818,"5.071"
"2730","capital","figure",3,0,30,1,14,1.645,27,0.75,1,0,0,1.136,"SKIP",0,NA,2.847,"flower",0,10.88,"12.503"
"2730","chicken","beet",1,0,22,1,12,1.459,13,0.361111111111111,1,0,0,0.824,"water",0,NA,5.824,"SKIP",0,2.05,"3.575"
"2730","remind","foam",2,0,20,1,15,1.394,10,0.277777777777778,1,0,0,0.807,"road",0,NA,4.36,"SKIP",0,0.826,"2.232"
"2730","bleach","ruin",10,1,14,1,19,3.168,19,0.527777777777778,1,0,0,0.647,"beach",0,NA,3.136,"king",0,8.139,"9.376"
"2730","anger","decay",1,0,19,1,11,2.474,4,0.111111111111111,1,0,0,0.679,"tree",0,NA,3.239,"SKIP",0,0.825,"2.446"
"2730","find","clown",2,0,16,1,26,2.301,18,0.5,0,0,1,0.735,"",NA,NA,NA,"SKIP",0,1.001,"2.408"
"2730","port","cinema",2,0,15,1,24,1.49,30,0.833333333333333,0,0,1,0.687,"",NA,NA,NA,"SKIP",0,0.642,"3.215"
"2730","knock","otter",12,1,36,1,9,1.37,9,0.25,1,0,0,1.016,"SKIP",0,NA,2.855,"SKIP",0,0.779,"2.433"
"2730","visit","glove",2,0,29,1,13,2.01,2,0.0555555555555556,1,0,0,1.743,"SKIP",0,NA,4.075,"SKIP",0,0.625,"2.128"
"2730","fan","feature",1,0,18,1,20,1.649,20,0.555555555555556,1,0,0,1.687,"house",0,NA,3.008,"SKIP",0,1.168,"2.535"
"2730","bias","sirloin",1,0,35,1,19,1.419,21,0.583333333333333,1,0,0,0.615,"SKIP",0,NA,2.631,"SKIP",0,1.401,"2.936"
"2730","fee","chowder",3,0,9,1,8,2.487,5,0.138888888888889,1,0,0,0.942,"bread",0,NA,6.256,"SKIP",0,0.93,"2.679"
"2730","grip","beach",12,1,32,1,29,2.034,15,0.416666666666667,0,0,1,0.687,"",NA,NA,NA,"SKIP",0,0.673,"3.544"
"2730","want","ascent",10,1,6,1,13,1.092,11,0.305555555555556,1,0,0,0.64,"laugh",0,NA,6.706,"home",0,19.37,"20.519"
"2730","bacon","feud",3,0,31,1,17,1.388,32,0.888888888888889,0,0,1,1.456,"",NA,NA,NA,"plastic",0,2.41,"3.712"
"2730","copy","bedroom",3,0,25,1,36,2.595,12,0.333333333333333,0,0,1,0.664,"",NA,NA,NA,"SKIP",0,0.979,"2.457"
"2730","caring","skirt",1,0,10,1,14,1.347,6,0.166666666666667,1,0,0,4.19,"chart",0,NA,2.84,"SKIP",0,0.938,"2.311"
"2730","glue","force",11,1,13,1,12,1.634,8,0.222222222222222,1,0,0,0.951,"emperor",0,NA,2.776,"SKIP",0,7.018,"8.4"
"2753","process","joker",10,1,15,1,2,4.398,18,0.5,1,1,1,0.639,"milk",0,NA,3.92,"joker",1,4.272,"6.857"
"2753","copy","bedroom",3,0,35,1,1,2.058,20,0.555555555555556,0,1,0,1.016,"",NA,NA,NA,"paste",0,3.773,"5.296"
"2753","anger","decay",1,0,21,1,1,2.116,23,0.638888888888889,0,1,0,0.991,"",NA,NA,NA,"fork",0,4.6,"6.295"
"2753","visit","glove",2,0,9,1,1,1.821,13,0.361111111111111,0,1,0,0.839,"",NA,NA,NA,"sky",0,2.846,"4.351"
"2753","need","faucet",11,1,29,1,4,6.437,19,0.527777777777778,1,1,1,0.687,"help",0,NA,3.909,"pie",0,3.288,"4.8"
"2753","smother","surgery",3,0,30,1,1,2.116,4,0.111111111111111,0,1,0,4.15,"",NA,NA,NA,"brother",0,3.413,"5.704"
"2753","rock","milk",10,1,4,1,25,3.166,14,0.388888888888889,1,1,1,1.08,"milk",1,NA,5.119,"milk",1,1.794,"4.151"
"2753","prison","loaf",3,0,11,1,1,1.708,5,0.138888888888889,0,1,0,0.79,"",NA,NA,NA,"mike",0,15.788,"17.528"
"2753","bacon","feud",3,0,23,1,1,14.127,9,0.25,0,1,0,1.128,"",NA,NA,NA,"yum",0,2.99,"3.927"
"2753","plant","worm",1,0,2,1,1,1.773,32,0.888888888888889,0,1,0,0.911,"",NA,NA,NA,"trees",0,3.192,"4.271"
"2753","knock","otter",12,1,13,1,10,6.243,26,0.722222222222222,1,1,1,0.863,"otter",1,NA,4.04,"otter",1,5.349,"6.807"
"2753","pork","emperor",10,1,14,1,10,5.069,31,0.861111111111111,1,1,1,0.879,"emperor",1,NA,4.752,"emperor",1,3.197,"5.08"
"2753","bias","sirloin",1,0,16,1,1,2.318,11,0.305555555555556,0,1,0,0.864,"",NA,NA,NA,"spooky",0,8.278,"10.431"
"2753","climax","saucer",11,1,26,1,2,3.245,30,0.833333333333333,1,1,1,0.751,"plate",0,NA,3.95,"saucer",1,5.885,"7.952"
"2753","glue","force",11,1,36,1,5,5.229,34,0.944444444444444,1,1,1,0.775,"force",1,NA,3.751,"stick",0,3.788,"5.599"
"2753","bullet","walkway",11,1,27,1,3,4.053,25,0.694444444444444,1,1,1,0.807,"milk",0,NA,4.208,"wall",0,9.173,"11.215"
"2753","fan","feature",1,0,20,1,1,2.124,27,0.75,0,1,0,0.727,"",NA,NA,NA,"death",0,2.462,"4.112"
"2753","remind","foam",2,0,1,1,1,1.909,6,0.166666666666667,0,1,0,0.887,"",NA,NA,NA,"blanket",0,4.675,"6.583"
"2753","replace","roach",11,1,12,1,3,3.963,29,0.805555555555556,1,1,1,0.807,"beans",0,NA,3.654,"paste",0,2.197,"3.567"
"2753","chicken","beet",1,0,19,1,1,2.467,1,0.0277777777777778,0,1,0,-99,"",NA,NA,NA,"nugget",0,14.085,"15.783"
"2753","find","clown",2,0,17,1,1,1.98,21,0.583333333333333,0,1,0,0.784,"",NA,NA,NA,"forest",0,2.94,"4.599"
"2753","calf","annoy",2,0,7,1,1,2.11,17,0.472222222222222,0,1,0,3.584,"",NA,NA,NA,"field",0,4.666,"6.335"
"2753","shrink","mafia",10,1,24,1,5,4.997,10,0.277777777777778,1,1,1,1.608,"mafia",1,NA,4.703,"mafia",1,3.067,"4.927"
"2753","bleach","ruin",10,1,34,1,2,6.414,24,0.666666666666667,1,1,1,0.991,"plate",0,NA,1.336,"burp",0,16.927,"19.567"
"2753","fee","chowder",3,0,25,1,1,1.619,28,0.777777777777778,0,1,0,0.799,"",NA,NA,NA,"free",0,7.224,"8.135"
"2753","nerve","bumper",11,1,5,1,2,4.036,2,0.0555555555555556,1,1,1,4.239,"sheet",0,NA,4.552,"agent",0,2.001,"3.391"
"2753","grip","beach",12,1,33,1,5,3.342,36,1,1,1,1,1.056,"plate",0,NA,6.623,"death",0,1.563,"2.991"
"2753","pea","bathtub",12,1,6,1,10,3.566,7,0.194444444444444,1,1,1,0.688,"bathtub",1,NA,4.968,"bathtub",1,1.938,"5.887"
"2753","date","laugh",12,1,18,1,5,5.422,8,0.222222222222222,1,1,1,0.935,"plate",0,NA,4.398,"process",0,6.539,"8.015"
"2753","port","cinema",2,0,28,1,1,1.925,12,0.333333333333333,0,1,0,1.088,"",NA,NA,NA,"starboard",0,3.731,"10.199"
"2753","link","crisis",12,1,22,1,2,3.254,33,0.916666666666667,1,1,1,1.031,"escape",0,NA,5.131,"zelda",0,7.902,"9.543"
"2753","biology","temper",2,0,8,1,1,1.843,35,0.972222222222222,0,1,0,1.167,"",NA,NA,NA,"grape",0,3.33,"4.952"
"2753","capital","figure",3,0,31,1,1,2.709,15,0.416666666666667,0,1,0,0.767,"",NA,NA,NA,"wall",0,3.521,"7.591"
"2753","want","ascent",10,1,10,1,1,10.093,3,0.0833333333333333,1,1,1,0.887,"plate",0,NA,4.635,"hello",0,3.774,"5.528"
"2753","mill","feast",12,1,32,1,4,3.917,22,0.611111111111111,1,1,1,0.815,"pepper",0,NA,4.974,"feast",1,10.183,"11.984"
"2753","caring","skirt",1,0,3,1,1,1.81,16,0.444444444444444,0,1,0,1.192,"",NA,NA,NA,"bear",0,1.679,"3.887"
"2817","mill","feast",12,1,12,1,30,5.882,2,0.0555555555555556,1,1,1,9.246,"foam",0,NA,11.527,"SKIP",0,5.933,"8.181"
"2817","remind","foam",2,0,1,1,36,1.997,36,1,0,1,0,0.744,"",NA,NA,NA,"SKIP",0,5.976,"8.183"
"2817","caring","skirt",1,0,8,1,38,2.198,34,0.944444444444444,1,1,1,1.079,"skirt",1,NA,9.256,"SKIP",0,5.313,"6.343"
"2817","bullet","walkway",11,1,29,1,21,2.036,25,0.694444444444444,1,1,1,0.75,"walkway ",0,NA,4.311,"walkway",1,2.632,"5.695"
"2817","pea","bathtub",12,1,7,1,64,1.742,16,0.444444444444444,1,1,1,0.847,"bathtub",1,NA,6.326,"house",0,3.583,"6.615"
"2817","bias","sirloin",1,0,10,1,14,2.757,20,0.555555555555556,0,1,0,1.559,"",NA,NA,NA,"SKIP",0,2.887,"4.077"
"2817","date","laugh",12,1,18,1,66,1.62,31,0.861111111111111,1,1,1,1.063,"laugh",1,NA,4.806,"laugh",1,2.67,"5.118"
"2817","find","clown",2,0,21,1,66,1.477,27,0.75,1,1,1,0.919,"clown",1,NA,6.188,"clown",1,9.063,"10.99"
"2817","copy","bedroom",3,0,16,1,31,1.565,11,0.305555555555556,1,1,1,1.144,"bedroom",1,NA,6.075,"bedroom",1,2.44,"4.983"
"2817","need","faucet",11,1,6,1,3,1.301,32,0.888888888888889,0,1,0,3.622,"",NA,NA,NA,"SKIP",0,3.769,"8.591"
"2817","fee","chowder",3,0,4,1,9,3.246,17,0.472222222222222,0,1,0,0.967,"",NA,NA,NA,"SKIP",0,4.368,"6.342"
"2817","port","cinema",2,0,3,1,15,1.421,28,0.777777777777778,1,1,1,0.983,"cinema",1,NA,16.27,"SKIP",0,5.544,"6.43"
"2817","smother","surgery",3,0,19,1,12,2.564,5,0.138888888888889,0,1,0,0.767,"",NA,NA,NA,"SKIP",0,3.728,"4.383"
"2817","replace","roach",11,1,30,1,69,2.165,30,0.833333333333333,0,1,0,0.839,"",NA,NA,NA,"SKIP",0,2.05,"2.911"
"2817","capital","figure",3,0,35,1,64,1.869,26,0.722222222222222,0,1,0,1.352,"",NA,NA,NA,"model",0,6.105,"9.248"
"2817","fan","feature",1,0,34,1,10,3.643,6,0.166666666666667,0,1,0,0.799,"",NA,NA,NA,"SKIP",0,2.055,"2.966"
"2817","climax","saucer",11,1,14,1,62,4.628,3,0.0833333333333333,0,1,0,10.303,"",NA,NA,NA,"SKIP",0,3.442,"4.151"
"2817","anger","decay",1,0,31,1,28,2.707,18,0.5,1,1,1,1.143,"shrink ",0,NA,12.469,"SKIP",0,1.586,"2.503"
"2817","grip","beach",12,1,32,1,27,2.085,13,0.361111111111111,0,1,0,0.704,"",NA,NA,NA,"SKIP",0,1.777,"2.695"
"2817","nerve","bumper",11,1,23,1,64,1.491,24,0.666666666666667,1,1,1,0.999,"skip",0,NA,9.54,"SKIP",0,2.169,"3.144"
"2817","prison","loaf",3,0,24,1,62,6.225,1,0.0277777777777778,1,1,1,-99,"loaf ",0,NA,4.704,"loaf",1,1.728,"4.759"
"2817","pork","emperor",10,1,22,1,65,1.956,19,0.527777777777778,0,1,0,0.776,"",NA,NA,NA,"house",0,6.262,"9.318"
"2817","bacon","feud",3,0,15,1,55,1.82,4,0.111111111111111,0,1,0,1.095,"",NA,NA,NA,"SKIP",0,3.496,"5.454"
"2817","plant","worm",1,0,13,1,75,1.317,29,0.805555555555556,0,1,0,0.679,"",NA,NA,NA,"SKIP",0,15.305,"16.079"
"2817","visit","glove",2,0,36,1,57,3.3,35,0.972222222222222,1,1,1,0.895,"skip",0,NA,10.212,"SKIP",0,1.793,"2.487"
"2817","shrink","mafia",10,1,33,1,67,1.998,22,0.611111111111111,1,1,1,0.943,"mafia ",0,NA,4.959,"mafia",1,2.576,"4.568"
"2817","knock","otter",12,1,27,1,60,1.813,33,0.916666666666667,1,1,1,0.745,"otter",1,NA,4.933,"otter",1,5.928,"8.015"
"2817","calf","annoy",2,0,17,1,32,1.853,21,0.583333333333333,0,1,0,0.975,"",NA,NA,NA,"SKIP",0,1.608,"2.271"
"2817","rock","milk",10,1,20,1,25,4.06,9,0.25,0,1,0,1.344,"",NA,NA,NA,"milk",1,1.632,"9.527"
"2817","link","crisis",12,1,9,1,62,1.877,7,0.194444444444444,1,1,1,1.335,"crisis",1,NA,6.278,"SKIP",0,1.728,"3.383"
"2817","glue","force",11,1,11,1,14,2.19,8,0.222222222222222,1,1,1,1.015,"hard",0,NA,7.846,"SKIP",0,1.945,"2.736"
"2817","biology","temper",2,0,2,1,58,1.788,12,0.333333333333333,1,1,1,0.976,"annoy ",0,NA,9.17,"SKIP",0,1.634,"2.36"
"2817","want","ascent",10,1,5,1,74,1.418,23,0.638888888888889,1,1,1,0.879,"ascend",0,NA,5.702,"acsent",0,6.345,"9.543"
"2817","bleach","ruin",10,1,25,1,76,2.757,10,0.277777777777778,0,1,0,1.199,"",NA,NA,NA,"ruin",1,1.945,"9.655"
"2817","process","joker",10,1,26,1,62,2.013,14,0.388888888888889,0,1,0,0.791,"",NA,NA,NA,"SKIP",0,1.601,"2.471"
"2817","chicken","beet",1,0,28,1,66,3.099,15,0.416666666666667,0,1,0,1.2,"",NA,NA,NA,"pea",0,1.863,"3.398"
"2973","plant","worm",1,0,25,1,1,1.433,28,0.777777777777778,0,1,0,1.033,"",NA,NA,NA,"feast",0,10.812,"12.307"
"2973","bleach","ruin",10,1,6,1,100,2.844,8,0.222222222222222,1,1,1,1.725,"ruin",1,NA,4.529,"ruin",1,5.862,"8.125"
"2973","pork","emperor",10,1,10,1,100,1.829,11,0.305555555555556,1,1,1,1.054,"crisis",0,NA,9.569,"date",0,7.496,"8.785"
"2973","fan","feature",1,0,17,1,1,9.717,36,1,0,1,0,0.993,"",NA,NA,NA,"need",0,7.337,"8.712"
"2973","pea","bathtub",12,1,1,1,100,3.209,22,0.611111111111111,1,1,1,1.264,"bathtub",1,NA,17.501,"bathtub",1,4.7,"7.669"
"2973","rock","milk",10,1,31,1,95,3.464,26,0.722222222222222,1,1,1,1.058,"milk",1,NA,8.923,"milk",1,9.037,"11.274"
"2973","fee","chowder",3,0,15,1,10,3.106,17,0.472222222222222,0,1,0,1.437,"",NA,NA,NA,"bumper",0,23.533,"25.301"
"2973","need","faucet",11,1,2,1,90,4.429,21,0.583333333333333,1,1,1,1.057,"faucet",1,NA,5.516,"faucet",1,2.946,"4.549"
"2973","link","crisis",12,1,33,1,90,3.406,3,0.0833333333333333,1,1,1,2.078,"crisis",1,NA,6.023,"crisis",1,4.077,"5.775"
"2973","climax","saucer",11,1,4,1,100,3.641,35,0.972222222222222,1,1,1,1.18,"saucer",1,NA,6.227,"saucer",1,4.516,"5.984"
"2973","bacon","feud",3,0,22,1,10,3.332,13,0.361111111111111,0,1,0,0.903,"",NA,NA,NA,"beach",0,10.213,"11.794"
"2973","smother","surgery",3,0,21,1,15,4.366,34,0.944444444444444,0,1,0,1.801,"",NA,NA,NA,"faucet",0,5.016,"6.575"
"2973","visit","glove",2,0,26,1,1,7.498,5,0.138888888888889,0,1,0,3.395,"",NA,NA,NA,"mafia",0,8.741,"10.049"
"2973","glue","force",11,1,16,1,90,3.384,33,0.916666666666667,1,1,1,1.081,"force",1,NA,4.001,"force",1,7.423,"8.928"
"2973","grip","beach",12,1,32,1,95,3.883,30,0.833333333333333,1,1,1,0.872,"beach",1,NA,4.023,"beach",1,8.174,"9.746"
"2973","prison","loaf",3,0,34,1,1,3.735,4,0.111111111111111,0,1,0,1.251,"",NA,NA,NA,"want",0,12.03,"13.194"
"2973","find","clown",2,0,14,1,10,8.978,9,0.25,0,1,0,1.086,"",NA,NA,NA,"saucer",0,8.579,"9.949"
"2973","anger","decay",1,0,27,1,1,1.881,7,0.194444444444444,0,1,0,1.092,"",NA,NA,NA,"replace",0,7.824,"9.371"
"2973","nerve","bumper",11,1,12,1,90,3.479,15,0.416666666666667,1,1,1,1.684,"bumper",1,NA,4.1,"bumper",1,3.33,"4.914"
"2973","capital","figure",3,0,20,1,10,4.181,18,0.5,0,1,0,0.857,"",NA,NA,NA,"shrink",0,13.97,"15.803"
"2973","caring","skirt",1,0,24,1,1,2.079,12,0.333333333333333,0,1,0,1.615,"",NA,NA,NA,"rock",0,8.173,"10.086"
"2973","date","laugh",12,1,5,1,95,3.743,14,0.388888888888889,1,1,1,1.141,"laugh",1,NA,5.991,"laugh",1,3.827,"5.105"
"2973","knock","otter",12,1,9,1,100,1.951,24,0.666666666666667,1,1,1,1.003,"otter",1,NA,9.946,"otter",1,5.588,"6.881"
"2973","mill","feast",12,1,36,1,100,3.595,1,0.0277777777777778,1,1,1,-99,"feast",1,NA,9.404,"feast",1,2.729,"4.102"
"2973","process","joker",10,1,3,1,100,1.793,20,0.555555555555556,1,1,1,1.004,"saucer",0,NA,9.795,"want",0,11.34,"12.744"
"2973","port","cinema",2,0,18,1,1,1.952,32,0.888888888888889,0,1,0,1.145,"",NA,NA,NA,"glue",0,8.313,"9.929"
"2973","calf","annoy",2,0,23,1,1,3.44,25,0.694444444444444,0,1,0,0.983,"",NA,NA,NA,"grip",0,11.264,"12.525"
"2973","bullet","walkway",11,1,11,1,90,6.621,6,0.166666666666667,1,1,1,7.861,"walkway",1,NA,5.723,"walkway",1,3.444,"6.048"
"2973","shrink","mafia",10,1,35,1,100,2.273,29,0.805555555555556,1,1,1,0.925,"feast",0,NA,9.776,"mafia",1,1.914,"3.553"
"2973","want","ascent",10,1,30,1,90,3.754,27,0.75,1,1,1,1.384,"ascent",1,NA,11.577,"ascent",1,5.122,"6.559"
"2973","chicken","beet",1,0,8,1,1,2.063,10,0.277777777777778,0,1,0,0.95,"",NA,NA,NA,"mill",0,9.57,"11.067"
"2973","replace","roach",11,1,7,1,90,2.427,19,0.527777777777778,1,1,1,0.753,"roach",1,NA,3.201,"roach",1,2.724,"3.989"
"2973","remind","foam",2,0,19,1,1,5.874,2,0.0555555555555556,0,1,0,2.648,"",NA,NA,NA,"glue",0,15.437,"16.628"
"2973","copy","bedroom",3,0,29,1,10,4.268,16,0.444444444444444,0,1,0,0.919,"",NA,NA,NA,"pea",0,4.792,"5.784"
"2973","bias","sirloin",1,0,28,1,1,1.959,23,0.638888888888889,0,1,0,1.182,"",NA,NA,NA,"laugh",0,9.37,"10.694"
"2973","biology","temper",2,0,13,1,6,3.446,31,0.861111111111111,0,1,0,0.844,"",NA,NA,NA,"yellow",0,4.299,"6.902"
"3088","pea","bathtub",12,1,9,1,76,1.933,33,0.916666666666667,1,0,0,0.965,"bathtub",1,NA,3.924,"bathtub",1,2.59,"4.765"
"3088","chicken","beet",1,0,2,1,91,1.981,3,0.0833333333333333,0,0,1,1.773,"",NA,NA,NA,"bin",0,4.827,"6.253"
"3088","want","ascent",10,1,27,1,71,1.708,28,0.777777777777778,1,0,0,0.845,"crisis",0,NA,7.163,"aspire",0,1.158,"3.074"
"3088","nerve","bumper",11,1,28,1,71,1.602,32,0.888888888888889,1,0,0,0.901,"bumper",1,NA,4.567,"bumper",1,3.005,"4.855"
"3088","link","crisis",12,1,4,1,68,1.627,24,0.666666666666667,1,0,0,0.668,"crisis",1,NA,3.813,"ascend",0,1.248,"3.489"
"3088","grip","beach",12,1,11,1,23,1.574,15,0.416666666666667,0,0,1,0.877,"",NA,NA,NA,"bench",0,1.77,"3.413"
"3088","need","faucet",11,1,25,1,60,2.559,22,0.611111111111111,1,0,0,0.668,"tooth",0,NA,11.967,"greed",0,2.941,"4.542"
"3088","calf","annoy",2,0,8,1,10,1.456,19,0.527777777777778,1,0,0,1.319,"annoy",1,NA,3.32,"annoy",1,2.785,"4.807"
"3088","shrink","mafia",10,1,1,1,30,1.769,18,0.5,0,0,1,0.863,"",NA,NA,NA,"stuffy",0,11.538,"13.499"
"3088","smother","surgery",3,0,10,1,25,2.012,13,0.361111111111111,0,0,1,0.689,"",NA,NA,NA,"none",0,17.386,"18.57"
"3088","visit","glove",2,0,14,1,18,1.975,6,0.166666666666667,0,0,1,0.759,"",NA,NA,NA,"amplify",0,3.292,"5.583"
"3088","caring","skirt",1,0,30,1,10,1.607,36,1,1,0,0,0.885,"zoo",0,NA,4.985,"united",0,1.765,"3.207"
"3088","remind","foam",2,0,34,1,14,1.479,9,0.25,0,0,1,1.129,"",NA,NA,NA,"foam",1,3.905,"5.223"
"3088","anger","decay",1,0,24,1,28,1.511,21,0.583333333333333,1,0,0,0.893,"issue",0,NA,3.554,"smother",0,44.914,"46.498"
"3088","biology","temper",2,0,31,1,30,1.614,2,0.0555555555555556,0,0,1,3.609,"",NA,NA,NA,"frog",0,2.442,"4.353"
"3088","pork","emperor",10,1,26,1,77,2.011,35,0.972222222222222,1,0,0,0.745,"emperor",1,NA,4.049,"emperor",1,1.671,"5.851"
"3088","knock","otter",12,1,22,1,76,1.589,5,0.138888888888889,0,0,1,0.806,"",NA,NA,NA,"turn",0,2.605,"4.832"
"3088","find","clown",2,0,23,1,53,1.761,26,0.722222222222222,1,0,0,1.272,"lamp",0,NA,5.287,"anger",0,2.784,"5.553"
"3088","climax","saucer",11,1,12,1,26,1.662,10,0.277777777777778,0,0,1,1.672,"",NA,NA,NA,"plastic",0,2.262,"4.128"
"3088","capital","figure",3,0,6,1,7,1.817,7,0.194444444444444,0,0,1,1.241,"",NA,NA,NA,"loan",0,1.364,"2.783"
"3088","plant","worm",1,0,35,1,92,1.707,16,0.444444444444444,0,0,1,1.036,"",NA,NA,NA,"worm",1,1.508,"3.639"
