word1,word2,points,value,trial,list,jol,jolrt,jolrtfirst,choice,choicert,
fan,feature,1,0,1,1,15,5.267,3.204,-99,-99,
fee,chowder,3,0,2,1,66,12.678,4.943,-99,-99,
capital,figure,3,0,3,1,9,2.264,0.923,-99,-99,
caring,skirt,1,0,4,1,18,9.091,6.283,-99,-99,
nerve,bumper,11,1,5,1,84,1.994,0.577,-99,-99,
calf,annoy,2,0,6,1,25,2.347,0.993,-99,-99,
port,cinema,2,0,7,1,17,2.369,0.81,-99,-99,
link,crisis,12,1,8,1,15,2.633,1.55,-99,-99,
want,ascent,10,1,9,1,15,3.053,0.966,-99,-99,
date,laugh,12,1,10,1,8,3.949,0.668,-99,-99,
biology,temper,2,0,11,1,2,1.975,1.153,-99,-99,
mill,feast,12,1,12,1,13,1.376,0.64,-99,-99,
climax,saucer,11,1,13,1,5,1.828,1.107,-99,-99,
prison,loaf,3,0,14,1,21,1.796,1.261,-99,-99,
find,clown,2,0,15,1,21,3.766,3.153,-99,-99,
bullet,walkway,11,1,16,1,6,1.122,0.55,-99,-99,
replace,roach,11,1,17,1,6,1.48,0.958,-99,-99,
pork,emperor,10,1,18,1,18,1.4,0.882,-99,-99,
need,faucet,11,1,19,1,12,2.558,2.002,-99,-99,
glue,force,11,1,20,1,2,3.152,2.088,-99,-99,
pea,bathtub,12,1,21,1,5,2.564,1.038,-99,-99,
smother,surgery,3,0,22,1,3,1.54,0.47,-99,-99,
bias,sirloin,1,0,23,1,1,1.279,0.625,-99,-99,
bleach,ruin,10,1,24,1,2,1.083,0.454,-99,-99,
copy,bedroom,3,0,25,1,12,1.113,0.486,-99,-99,
process,joker,10,1,26,1,4,0.957,0.404,-99,-99,
shrink,mafia,10,1,27,1,14,1.124,0.448,-99,-99,
chicken,beet,1,0,28,1,24,0.994,0.401,-99,-99,
visit,glove,2,0,29,1,2,0.876,0.264,-99,-99,
plant,worm,1,0,30,1,29,0.689,0.223,-99,-99,
knock,otter,12,1,31,1,2,1.065,0.498,-99,-99,
remind,foam,2,0,32,1,2,1.41,0.78,-99,-99,
anger,decay,1,0,33,1,25,0.748,0.221,-99,-99,
bacon,feud,3,0,34,1,14,0.866,0.347,-99,-99,
rock,milk,10,1,35,1,5,3.008,2.419,-99,-99,
grip,beach,12,1,36,1,5,2.521,1.98,-99,-99,
want,ascent,10,1,1,2,4,3.368,2.833,-99,-99,
replace,roach,11,1,2,2,1,6.777,5.129,-99,-99,
copy,bedroom,3,0,3,2,4,14.963,11.892,-99,-99,
pea,bathtub,12,1,4,2,1,5.955,1.09,-99,-99,
bullet,walkway,11,1,5,2,17,1.072,0.464,-99,-99,
prison,loaf,3,0,6,2,11,2.476,0.969,-99,-99,
anger,decay,1,0,7,2,23,0.897,0.38,-99,-99,
nerve,bumper,11,1,8,2,7,5.094,0.412,-99,-99,
pork,emperor,10,1,9,2,4,1.292,0.595,-99,-99,
plant,worm,1,0,10,2,29,1.161,0.424,-99,-99,
visit,glove,2,0,11,2,8,4.044,0.796,-99,-99,
knock,otter,12,1,12,2,1,1.26,0.431,-99,-99,
find,clown,2,0,13,2,2,2.162,0.717,-99,-99,
port,cinema,2,0,14,2,1,0.956,0.383,-99,-99,
mill,feast,12,1,15,2,21,1.824,0.58,-99,-99,
fee,chowder,3,0,16,2,6,8.32,7.639,-99,-99,
rock,milk,10,1,17,2,2,0.805,0.345,-99,-99,
remind,foam,2,0,18,2,1,1.24,0.641,-99,-99,
capital,figure,3,0,19,2,2,1.019,0.417,-99,-99,
shrink,mafia,10,1,20,2,6,6.748,6.115,-99,-99,
bias,sirloin,1,0,21,2,2,1.379,0.839,-99,-99,
date,laugh,12,1,22,2,1,1.54,0.283,-99,-99,
biology,temper,2,0,23,2,2,2.303,0.649,-99,-99,
chicken,beet,1,0,24,2,9,3.747,2.165,-99,-99,
fan,feature,1,0,25,2,2,2.778,1.477,-99,-99,
bacon,feud,3,0,26,2,6,4.607,3.559,-99,-99,
need,faucet,11,1,27,2,4,2.419,1.175,-99,-99,
smother,surgery,3,0,28,2,3,1.349,0.559,-99,-99,
bleach,ruin,10,1,29,2,2,1.081,0.384,-99,-99,
glue,force,11,1,30,2,2,5.071,0.81,-99,-99,
caring,skirt,1,0,31,2,1,1.499,0.794,-99,-99,
process,joker,10,1,32,2,1,1.48,0.826,-99,-99,
climax,saucer,11,1,33,2,2,0.769,0.254,-99,-99,
link,crisis,12,1,34,2,2,1.332,0.627,-99,-99,
grip,beach,12,1,35,2,1,1.379,0.214,-99,-99,
calf,annoy,2,0,36,2,1,0.79,0.234,-99,-99,
caring,skirt,1,0,1,3,1,6.558,2.699,0,-99,
smother,surgery,3,0,2,3,1,3.608,2.225,0,10.041,
need,faucet,11,1,3,3,1,7.4,5.094,0,1.828,
shrink,mafia,10,1,4,3,27,1.597,0.773,1,1.66,
chicken,beet,1,0,5,3,75,3.193,1.216,1,0.804,
remind,foam,2,0,6,3,5,2.916,0.621,0,1.82,
plant,worm,1,0,7,3,97,1.512,0.57,1,1.137,
replace,roach,11,1,8,3,3,3.651,1.052,0,1.206,
date,laugh,12,1,9,3,1,3.666,2.775,0,1.045,
nerve,bumper,11,1,10,3,10,5.231,3.836,1,3.824,
bacon,feud,3,0,11,3,89,3.552,2.42,1,0.574,
pork,emperor,10,1,12,3,15,2.91,1.646,1,0.562,
bleach,ruin,10,1,13,3,8,3.203,1.828,0,0.499,
want,ascent,10,1,14,3,1,3.187,2.444,0,0.756,
knock,otter,12,1,15,3,1,2.17,1.409,0,0.599,
link,crisis,12,1,16,3,4,2.429,0.801,0,1.183,
visit,glove,2,0,17,3,5,3.43,2.758,1,2.048,
mill,feast,12,1,18,3,85,1.245,0.51,1,0.629,
calf,annoy,2,0,19,3,23,2.249,1.461,1,0.965,
find,clown,2,0,20,3,13,2.224,0.779,0,0.754,
bullet,walkway,11,1,21,3,3,10.153,0.664,1,3.327,
fee,chowder,3,0,22,3,21,1.989,0.892,1,2.588,
copy,bedroom,3,0,23,3,10,2.213,0.923,0,1.243,
climax,saucer,11,1,24,3,15,1.983,0.725,0,0.851,
grip,beach,12,1,25,3,1,2.301,1.578,0,1.562,
capital,figure,3,0,26,3,27,2.657,1.692,1,0.612,
port,cinema,2,0,27,3,1,3.045,1.116,1,0.582,
anger,decay,1,0,28,3,1,2.561,0.937,1,2.052,
process,joker,10,1,29,3,1,2.781,1.621,0,0.637,
pea,bathtub,12,1,30,3,1,4.417,2.059,0,1.217,
biology,temper,2,0,31,3,1,3.559,0.889,0,1.472,
bias,sirloin,1,0,32,3,1,2.509,0.731,1,0.879,
prison,loaf,3,0,33,3,7,3.111,2.057,1,1.516,
fan,feature,1,0,34,3,87,1.463,0.544,1,0.586,
glue,force,11,1,35,3,10,2.444,0.607,1,0.765,
rock,milk,10,1,36,3,1,2.586,1.005,0,1.142,

