word1,word2,points,value,trial,list,jol,jolrt,jolrtfirst,choice,choicert,
bias,sirloin,1,0,1,1,57,44.509,40.878,-99,-99,
caring,skirt,1,0,2,1,61,54.982,51.485,-99,-99,
visit,glove,2,0,3,1,57,4.402,1.908,-99,-99,
fan,feature,1,0,4,1,59,5.313,4.359,-99,-99,
rock,milk,10,1,5,1,89,10.546,9.678,-99,-99,
link,crisis,12,1,6,1,91,8.326,7.481,-99,-99,
capital,figure,3,0,7,1,78,3.008,1.043,-99,-99,
find,clown,2,0,8,1,70,6.037,4.924,-99,-99,
prison,loaf,3,0,9,1,69,7.101,6.169,-99,-99,
replace,roach,11,1,10,1,67,14.915,13.89,-99,-99,
glue,force,11,1,11,1,88,9.755,8.928,-99,-99,
calf,annoy,2,0,12,1,37,11.158,10.386,-99,-99,
grip,beach,12,1,13,1,82,9.776,8.87,-99,-99,
bleach,ruin,10,1,14,1,73,16.279,15.19,-99,-99,
shrink,mafia,10,1,15,1,89,3.349,2.537,-99,-99,
port,cinema,2,0,16,1,67,5.155,4.257,-99,-99,
fee,chowder,3,0,17,1,57,9.021,8.194,-99,-99,
want,ascent,10,1,18,1,68,3.68,2.892,-99,-99,
need,faucet,11,1,19,1,81,7.478,6.209,-99,-99,
date,laugh,12,1,20,1,77,6.13,5.2,-99,-99,
process,joker,10,1,21,1,87,4.86,4.104,-99,-99,
pea,bathtub,12,1,22,1,83,7.76,6.885,-99,-99,
chicken,beet,1,0,23,1,53,8.287,7.16,-99,-99,
nerve,bumper,11,1,24,1,71,6.541,5.768,-99,-99,
remind,foam,2,0,25,1,61,10.389,9.285,-99,-99,
bacon,feud,3,0,26,1,61,3.903,3.163,-99,-99,
anger,decay,1,0,27,1,37,7.497,6.653,-99,-99,
pork,emperor,10,1,28,1,95,4.906,3.565,-99,-99,
smother,surgery,3,0,29,1,70,8.4,7.714,-99,-99,
copy,bedroom,3,0,30,1,83,16.355,15.615,-99,-99,
biology,temper,2,0,31,1,44,5.448,4.644,-99,-99,
mill,feast,12,1,32,1,94,11.286,10.496,-99,-99,
plant,worm,1,0,33,1,37,6.7,5.842,-99,-99,
knock,otter,12,1,34,1,82,4.695,3.969,-99,-99,
climax,saucer,11,1,35,1,74,12.892,11.803,-99,-99,
bullet,walkway,11,1,36,1,83,1.788,1.133,-99,-99,
fan,feature,1,0,1,2,46,7.029,5.552,-99,-99,
climax,saucer,11,1,2,2,85,2.01,0.811,-99,-99,
capital,figure,3,0,3,2,60,2.57,1.678,-99,-99,
port,cinema,2,0,4,2,60,7.484,6.662,-99,-99,
plant,worm,1,0,5,2,59,2.118,1.25,-99,-99,
rock,milk,10,1,6,2,89,2.797,1.085,-99,-99,
find,clown,2,0,7,2,48,6.322,3.152,-99,-99,
copy,bedroom,3,0,8,2,65,33.249,32.349,-99,-99,
visit,glove,2,0,9,2,61,5.192,2.545,-99,-99,
bullet,walkway,11,1,10,2,85,1.839,0.885,-99,-99,
caring,skirt,1,0,11,2,41,3.033,1.564,-99,-99,
fee,chowder,3,0,12,2,63,2.224,0.756,-99,-99,
shrink,mafia,10,1,13,2,89,1.442,0.691,-99,-99,
want,ascent,10,1,14,2,89,2.395,1.543,-99,-99,
remind,foam,2,0,15,2,58,3.089,2.347,-99,-99,
calf,annoy,2,0,16,2,44,2.661,1.351,-99,-99,
anger,decay,1,0,17,2,78,1.913,0.984,-99,-99,
glue,force,11,1,18,2,87,1.941,1.271,-99,-99,
need,faucet,11,1,19,2,87,1.888,0.934,-99,-99,
mill,feast,12,1,20,2,94,2.696,1.914,-99,-99,
process,joker,10,1,21,2,75,3.693,2.659,-99,-99,
bleach,ruin,10,1,22,2,81,4.765,3.835,-99,-99,
chicken,beet,1,0,23,2,38,2.66,1.358,-99,-99,
knock,otter,12,1,24,2,89,1.5,0.758,-99,-99,
bacon,feud,3,0,25,2,32,2.348,1.321,-99,-99,
nerve,bumper,11,1,26,2,91,2.127,1.132,-99,-99,
pork,emperor,10,1,27,2,89,1.334,0.673,-99,-99,
replace,roach,11,1,28,2,83,1.355,0.558,-99,-99,
pea,bathtub,12,1,29,2,83,1.814,0.961,-99,-99,
bias,sirloin,1,0,30,2,40,1.769,0.886,-99,-99,
biology,temper,2,0,31,2,28,1.471,0.768,-99,-99,
smother,surgery,3,0,32,2,33,2.694,1.905,-99,-99,
date,laugh,12,1,33,2,87,7.199,6.219,-99,-99,
prison,loaf,3,0,34,2,29,1.684,0.799,-99,-99,
grip,beach,12,1,35,2,82,2.953,1.159,-99,-99,
link,crisis,12,1,36,2,96,7.289,6.407,-99,-99,
glue,force,11,1,1,3,89,1.674,0.996,1,-99,
port,cinema,2,0,2,3,47,4.241,1.49,1,2.976,
process,joker,10,1,3,3,83,1.473,0.649,0,1.203,
pork,emperor,10,1,4,3,86,1.946,0.88,0,1.12,
chicken,beet,1,0,5,3,75,6.389,5.562,1,1.12,
need,faucet,11,1,6,3,86,6.188,3.779,1,1.17,
smother,surgery,3,0,7,3,62,2.03,1.422,0,1.003,
bias,sirloin,1,0,8,3,33,1.839,1.089,0,0.884,
capital,figure,3,0,9,3,75,1.542,0.784,0,0.971,
copy,bedroom,3,0,10,3,89,2.216,1.286,1,0.907,
shrink,mafia,10,1,11,3,83,1.59,0.779,0,0.868,
knock,otter,12,1,12,3,89,1.389,0.544,1,0.978,
fan,feature,1,0,13,3,26,1.595,0.853,0,1.011,
visit,glove,2,0,14,3,56,2.394,0.767,1,2.283,
caring,skirt,1,0,15,3,85,1.444,0.797,0,0.67,
plant,worm,1,0,16,3,91,1.807,0.963,1,1.193,
bleach,ruin,10,1,17,3,88,2.038,1.351,1,0.876,
bacon,feud,3,0,18,3,65,2.174,1.449,0,0.726,
calf,annoy,2,0,19,3,61,3.09,0.662,0,0.703,
link,crisis,12,1,20,3,92,1.619,0.822,1,0.814,
replace,roach,11,1,21,3,97,1.498,0.644,0,1.019,
date,laugh,12,1,22,3,89,1.608,0.779,0,1.321,
prison,loaf,3,0,23,3,55,3.374,0.947,0,2.489,
nerve,bumper,11,1,24,3,94,1.572,0.815,1,0.663,
grip,beach,12,1,25,3,86,4.37,1.674,1,0.853,
rock,milk,10,1,26,3,94,1.805,1.002,1,0.925,
bullet,walkway,11,1,27,3,95,1.412,0.646,1,0.774,
mill,feast,12,1,28,3,94,1.361,0.499,1,0.869,
climax,saucer,11,1,29,3,86,1.754,1.022,1,1.003,
find,clown,2,0,30,3,64,1.506,0.85,0,0.83,
pea,bathtub,12,1,31,3,79,1.94,0.888,0,0.718,
anger,decay,1,0,32,3,24,1.499,0.765,0,0.728,
want,ascent,10,1,33,3,85,2.083,1.398,0,0.972,
biology,temper,2,0,34,3,26,1.759,1.025,0,1.418,
fee,chowder,3,0,35,3,68,2.726,0.807,1,1.075,
remind,foam,2,0,36,3,91,1.883,0.763,1,1.296,

