word1,word2,points,value,trial,list,jol,jolrt,jolrtfirst,choice,choicert,
need,faucet,11,1,1,1,82,3.781,1.381,-99,-99,
pea,bathtub,12,1,2,1,88,2.637,1.33,-99,-99,
caring,skirt,1,0,3,1,80,5.466,3.653,-99,-99,
replace,roach,11,1,4,1,84,4.361,2.887,-99,-99,
mill,feast,12,1,5,1,88,3.757,1.58,-99,-99,
climax,saucer,11,1,6,1,88,2.684,1.383,-99,-99,
bleach,ruin,10,1,7,1,94,5.141,3.715,-99,-99,
chicken,beet,1,0,8,1,83,2.815,1.438,-99,-99,
calf,annoy,2,0,9,1,84,6.333,3.02,-99,-99,
port,cinema,2,0,10,1,97,2.35,1.151,-99,-99,
shrink,mafia,10,1,11,1,88,2.196,1.058,-99,-99,
copy,bedroom,3,0,12,1,73,1.873,0.394,-99,-99,
knock,otter,12,1,13,1,76,2.327,1.112,-99,-99,
prison,loaf,3,0,14,1,83,2.176,1.038,-99,-99,
capital,figure,3,0,15,1,80,2.213,0.139,-99,-99,
anger,decay,1,0,16,1,90,3.535,1.595,-99,-99,
glue,force,11,1,17,1,76,15.804,14.33,-99,-99,
nerve,bumper,11,1,18,1,82,5.084,4.002,-99,-99,
plant,worm,1,0,19,1,94,1.716,0.02,-99,-99,
smother,surgery,3,0,20,1,88,3.232,2.04,-99,-99,
remind,foam,2,0,21,1,86,2.705,1.432,-99,-99,
bacon,feud,3,0,22,1,64,181.261,0.504,-99,-99,
want,ascent,10,1,23,1,93,52.087,47.622,-99,-99,
date,laugh,12,1,24,1,86,173.737,172.464,-99,-99,
rock,milk,10,1,25,1,82,5.28,4.014,-99,-99,
fee,chowder,3,0,26,1,85,306.466,305.328,-99,-99,
pork,emperor,10,1,27,1,82,72.278,70.654,-99,-99,
bullet,walkway,11,1,28,1,86,188.804,187.515,-99,-99,
visit,glove,2,0,29,1,78,23.049,21.816,-99,-99,
grip,beach,12,1,30,1,81,3.985,2.572,-99,-99,
biology,temper,2,0,31,1,88,36.662,35.46,-99,-99,
bias,sirloin,1,0,32,1,87,5.36,4.132,-99,-99,
link,crisis,12,1,33,1,88,210.444,208.409,-99,-99,
process,joker,10,1,34,1,75,2.498,1.187,-99,-99,
fan,feature,1,0,35,1,81,14.486,9.282,-99,-99,
find,clown,2,0,36,1,85,10.642,7.695,-99,-99,
pea,bathtub,12,1,1,2,88,2.687,1.329,-99,-99,
process,joker,10,1,2,2,92,1.49,0.127,-99,-99,
link,crisis,12,1,3,2,94,5.38,4.294,-99,-99,
knock,otter,12,1,4,2,86,2.66,0.063,-99,-99,
pork,emperor,10,1,5,2,81,2.07,0.92,-99,-99,
climax,saucer,11,1,6,2,87,2.75,1.376,-99,-99,
mill,feast,12,1,7,2,86,3.415,1.845,-99,-99,
remind,foam,2,0,8,2,82,3.374,0.039,-99,-99,
anger,decay,1,0,9,2,85,8.488,4.62,-99,-99,
smother,surgery,3,0,10,2,79,514.94,513.731,-99,-99,
calf,annoy,2,0,11,2,92,3.023,1.885,-99,-99,
biology,temper,2,0,12,2,84,5.164,3.556,-99,-99,
caring,skirt,1,0,13,2,88,2.937,1.001,-99,-99,
rock,milk,10,1,14,2,94,19.393,18.151,-99,-99,
visit,glove,2,0,15,2,81,5.371,3.98,-99,-99,
need,faucet,11,1,16,2,87,2.734,1.616,-99,-99,
capital,figure,3,0,17,2,80,3.058,1.164,-99,-99,
port,cinema,2,0,18,2,78,10.094,7.291,-99,-99,
glue,force,11,1,19,2,83,4.803,3.283,-99,-99,
bias,sirloin,1,0,20,2,82,8.264,6.993,-99,-99,
bacon,feud,3,0,21,2,80,7.443,6.27,-99,-99,
chicken,beet,1,0,22,2,88,2.563,1.046,-99,-99,
bleach,ruin,10,1,23,2,75,2.89,1.755,-99,-99,
fan,feature,1,0,24,2,82,6.369,3.848,-99,-99,
find,clown,2,0,25,2,79,24.046,22.916,-99,-99,
plant,worm,1,0,26,2,91,3.871,2.897,-99,-99,
grip,beach,12,1,27,2,89,2.114,1.027,-99,-99,
want,ascent,10,1,28,2,85,19.664,0.963,-99,-99,
nerve,bumper,11,1,29,2,81,10.904,9.585,-99,-99,
replace,roach,11,1,30,2,84,2.559,1.415,-99,-99,
prison,loaf,3,0,31,2,90,2.911,1.302,-99,-99,
shrink,mafia,10,1,32,2,82,-0.619,-1.964,-99,-99,
date,laugh,12,1,33,2,91,18.031,15.815,-99,-99,
fee,chowder,3,0,34,2,86,9.987,7.49,-99,-99,
copy,bedroom,3,0,35,2,89,2.383,1.195,-99,-99,
bullet,walkway,11,1,36,2,80,13.073,11.978,-99,-99,
need,faucet,11,1,1,3,81,9.284,4.25,1,-99,
knock,otter,12,1,2,3,82,3.469,1.41,0,10.588,
smother,surgery,3,0,3,3,87,3.06,1.5,1,1.502,
bleach,ruin,10,1,4,3,82,2.82,1.734,1,1.198,
biology,temper,2,0,5,3,86,3.202,1.471,1,1.583,
copy,bedroom,3,0,6,3,77,3.162,1.147,1,1.505,
calf,annoy,2,0,7,3,85,2.669,1.3,1,1.434,
bacon,feud,3,0,8,3,96,3.428,1.531,1,1.687,
nerve,bumper,11,1,9,3,80,2.462,1.204,1,1.571,
visit,glove,2,0,10,3,90,2.809,1.332,1,1.809,
fan,feature,1,0,11,3,80,2.317,1.234,1,1.813,
process,joker,10,1,12,3,79,-5.862,-6.961,1,1.254,
plant,worm,1,0,13,3,80,2.449,1.331,1,1.489,
rock,milk,10,1,14,3,80,3.613,1.561,1,1.71,
prison,loaf,3,0,15,3,85,3.101,1.67,1,1.513,
port,cinema,2,0,16,3,78,2.615,1.01,1,1.254,
pork,emperor,10,1,17,3,82,3.364,2.015,1,2.041,
mill,feast,12,1,18,3,91,2.427,1.284,1,1.457,
date,laugh,12,1,19,3,86,-3.886,-4.964,1,1.742,
link,crisis,12,1,20,3,81,2.669,1.499,0,1.623,
shrink,mafia,10,1,21,3,91,4.168,1.933,0,3.963,
grip,beach,12,1,22,3,78,2.895,1.056,0,2.274,
pea,bathtub,12,1,23,3,87,2.402,1.403,0,2.407,
replace,roach,11,1,24,3,76,2.493,1.156,0,1.845,
find,clown,2,0,25,3,57,2.465,0.76,0,1.566,
capital,figure,3,0,26,3,75,4.479,1.669,0,1.448,
bias,sirloin,1,0,27,3,84,2.337,1.105,0,8.687,
glue,force,11,1,28,3,81,3.126,1.61,0,1.141,
want,ascent,10,1,29,3,92,2.493,1.165,0,1.23,
fee,chowder,3,0,30,3,91,3.1,1.654,0,1.839,
caring,skirt,1,0,31,3,81,3.01,1.618,0,2.014,
bullet,walkway,11,1,32,3,95,2.24,0.992,0,1.383,
anger,decay,1,0,33,3,86,4.109,2.606,0,1.568,
climax,saucer,11,1,34,3,76,2.686,1.582,0,1.798,
remind,foam,2,0,35,3,74,2.222,1.054,0,1.423,
chicken,beet,1,0,36,3,63,2.863,0.013,0,2.074,

