word1,word2,points,value,trial,list,jol,jolrt,jolrtfirst,choice,choicert,
biology,temper,2,0,1,1,27,4.44,2.484,-99,-99,
find,clown,2,0,2,1,61,2.838,1.354,-99,-99,
nerve,bumper,11,1,3,1,56,3.928,2.466,-99,-99,
bias,sirloin,1,0,4,1,4,3.535,1.255,-99,-99,
caring,skirt,1,0,5,1,26,2.868,0.952,-99,-99,
fan,feature,1,0,6,1,93,3.433,1.081,-99,-99,
knock,otter,12,1,7,1,65,3.94,1.457,-99,-99,
glue,force,11,1,8,1,61,3.019,1.093,-99,-99,
bleach,ruin,10,1,9,1,97,7.416,1.52,-99,-99,
calf,annoy,2,0,10,1,70,3.787,1.082,-99,-99,
shrink,mafia,10,1,11,1,59,4.376,2.973,-99,-99,
rock,milk,10,1,12,1,18,4.575,1.718,-99,-99,
need,faucet,11,1,13,1,9,3.243,1.619,-99,-99,
chicken,beet,1,0,14,1,72,2.119,1.009,-99,-99,
want,ascent,10,1,15,1,58,2.334,1.226,-99,-99,
process,joker,10,1,16,1,45,3.393,2.274,-99,-99,
smother,surgery,3,0,17,1,71,2.141,0.943,-99,-99,
capital,figure,3,0,18,1,85,3.38,2.159,-99,-99,
prison,loaf,3,0,19,1,25,1.936,0.737,-99,-99,
remind,foam,2,0,20,1,14,4.357,3.347,-99,-99,
visit,glove,2,0,21,1,22,15.777,14.899,-99,-99,
pork,emperor,10,1,22,1,63,2.088,0.907,-99,-99,
bullet,walkway,11,1,23,1,31,20.567,18.657,-99,-99,
fee,chowder,3,0,24,1,18,2.06,1.132,-99,-99,
mill,feast,12,1,25,1,63,2.072,0.819,-99,-99,
grip,beach,12,1,26,1,36,1.789,0.738,-99,-99,
replace,roach,11,1,27,1,55,1.968,0.971,-99,-99,
port,cinema,2,0,28,1,5,2.182,1.081,-99,-99,
pea,bathtub,12,1,29,1,22,5.788,4.341,-99,-99,
date,laugh,12,1,30,1,93,2.728,1.334,-99,-99,
climax,saucer,11,1,31,1,8,1.941,0.851,-99,-99,
link,crisis,12,1,32,1,29,14.552,13.614,-99,-99,
bacon,feud,3,0,33,1,13,1.726,0.726,-99,-99,
copy,bedroom,3,0,34,1,31,3.576,2.152,-99,-99,
plant,worm,1,0,35,1,91,8.379,7.268,-99,-99,
anger,decay,1,0,36,1,76,1.626,0.676,-99,-99,
remind,foam,2,0,1,2,55,5.45,2.367,-99,-99,
calf,annoy,2,0,2,2,75,2.686,0.647,-99,-99,
want,ascent,10,1,3,2,24,3.929,1.495,-99,-99,
plant,worm,1,0,4,2,93,1.595,0.587,-99,-99,
prison,loaf,3,0,5,2,17,1.303,0.656,-99,-99,
anger,decay,1,0,6,2,70,6.426,4.175,-99,-99,
port,cinema,2,0,7,2,27,1.858,0.595,-99,-99,
chicken,beet,1,0,8,2,35,13.483,12.342,-99,-99,
date,laugh,12,1,9,2,95,3.638,1,-99,-99,
mill,feast,12,1,10,2,89,2.102,0.931,-99,-99,
smother,surgery,3,0,11,2,63,1.404,0.627,-99,-99,
knock,otter,12,1,12,2,23,1.494,0.545,-99,-99,
nerve,bumper,11,1,13,2,23,2.07,1.09,-99,-99,
replace,roach,11,1,14,2,44,1.728,0.871,-99,-99,
fan,feature,1,0,15,2,94,1.686,0.787,-99,-99,
pork,emperor,10,1,16,2,62,1.718,0.608,-99,-99,
find,clown,2,0,17,2,81,1.685,0.716,-99,-99,
shrink,mafia,10,1,18,2,72,1.959,1.212,-99,-99,
climax,saucer,11,1,19,2,24,1.587,0.658,-99,-99,
pea,bathtub,12,1,20,2,15,1.516,0.516,-99,-99,
visit,glove,2,0,21,2,17,2.152,1.334,-99,-99,
bias,sirloin,1,0,22,2,4,1.738,0.648,-99,-99,
bacon,feud,3,0,23,2,24,2.334,0.939,-99,-99,
grip,beach,12,1,24,2,14,1.405,0.588,-99,-99,
need,faucet,11,1,25,2,18,2.415,1.506,-99,-99,
link,crisis,12,1,26,2,23,2.172,1.294,-99,-99,
copy,bedroom,3,0,27,2,30,2.436,0.597,-99,-99,
bullet,walkway,11,1,28,2,34,3.346,0.618,-99,-99,
process,joker,10,1,29,2,30,1.626,0.899,-99,-99,
glue,force,11,1,30,2,30,1.413,0.606,-99,-99,
biology,temper,2,0,31,2,11,1.2,0.483,-99,-99,
capital,figure,3,0,32,2,63,1.495,0.596,-99,-99,
caring,skirt,1,0,33,2,12,1.555,0.565,-99,-99,
fee,chowder,3,0,34,2,6,2.334,1.031,-99,-99,
bleach,ruin,10,1,35,2,75,1.263,0.495,-99,-99,
rock,milk,10,1,36,2,36,1.82,0.93,-99,-99,
bleach,ruin,10,1,1,3,70,6.871,5.013,1,-99,
want,ascent,10,1,2,3,20,1.868,0.928,0,1.899,
remind,foam,2,0,3,3,12,2.151,0.92,0,1.657,
visit,glove,2,0,4,3,24,1.869,0.823,0,1.495,
bullet,walkway,11,1,5,3,66,1.748,0.728,1,0.826,
caring,skirt,1,0,6,3,17,1.808,1,0,1.082,
pork,emperor,10,1,7,3,67,1.636,0.798,1,1.222,
biology,temper,2,0,8,3,56,1.434,0.657,1,1.303,
pea,bathtub,12,1,9,3,22,1.776,0.868,0,0.828,
bacon,feud,3,0,10,3,22,1.505,0.667,0,0.949,
find,clown,2,0,11,3,68,1.83,1.004,1,0.666,
smother,surgery,3,0,12,3,57,1.434,0.667,1,0.939,
fan,feature,1,0,13,3,86,1.92,0.536,1,0.747,
fee,chowder,3,0,14,3,7,1.778,0.638,0,0.766,
process,joker,10,1,15,3,57,1.738,0.728,1,0.769,
anger,decay,1,0,16,3,72,1.475,0.737,1,0.918,
plant,worm,1,0,17,3,85,1.737,0.848,1,0.787,
bias,sirloin,1,0,18,3,14,2.073,1.275,0,0.867,
copy,bedroom,3,0,19,3,38,1.697,0.698,1,0.959,
prison,loaf,3,0,20,3,22,1.454,0.737,0,0.625,
shrink,mafia,10,1,21,3,56,1.394,0.618,1,0.807,
knock,otter,12,1,22,3,40,1.524,0.655,0,1.848,
nerve,bumper,11,1,23,3,41,1.333,0.536,0,0.717,
calf,annoy,2,0,24,3,41,1.768,0.979,1,0.778,
grip,beach,12,1,25,3,30,1.413,0.647,0,1.06,
need,faucet,11,1,26,3,15,1.403,0.594,0,0.868,
capital,figure,3,0,27,3,75,1.324,0.588,1,0.757,
glue,force,11,1,28,3,69,1.738,1.062,1,0.727,
port,cinema,2,0,29,3,36,1.756,0.605,0,0.767,
date,laugh,12,1,30,3,74,2.142,1.456,1,0.586,
replace,roach,11,1,31,3,41,1.293,0.597,0,0.706,
chicken,beet,1,0,32,3,38,1.968,0.554,0,0.868,
climax,saucer,11,1,33,3,33,1.543,0.858,0,0.758,
link,crisis,12,1,34,3,24,1.313,0.576,0,0.616,
mill,feast,12,1,35,3,55,1.242,0.547,1,0.788,
rock,milk,10,1,36,3,34,1.312,0.564,1,1.09,

