word1,word2,points,value,trial,list,jol,jolrt,jolrtfirst,choice,choicert,
glue,force,11,1,1,1,78,10.705,8.786,-99,-99,
remind,foam,2,0,2,1,68,3.936,2.437,-99,-99,
fee,chowder,3,0,3,1,74,2.668,1.368,-99,-99,
biology,temper,2,0,4,1,95,2.897,1.518,-99,-99,
grip,beach,12,1,5,1,58,4.9,1.025,-99,-99,
visit,glove,2,0,6,1,71,10.717,8.313,-99,-99,
bias,sirloin,1,0,7,1,25,6.552,1.016,-99,-99,
chicken,beet,1,0,8,1,73,4.69,1.145,-99,-99,
caring,skirt,1,0,9,1,72,127.612,124.072,-99,-99,
want,ascent,10,1,10,1,100,36.505,2.845,-99,-99,
pea,bathtub,12,1,11,1,91,2.992,1.247,-99,-99,
climax,saucer,11,1,12,1,82,7.33,4.153,-99,-99,
date,laugh,12,1,13,1,86,3.806,2.409,-99,-99,
prison,loaf,3,0,14,1,67,2.645,1.316,-99,-99,
port,cinema,2,0,15,1,81,3.015,1.666,-99,-99,
bleach,ruin,10,1,16,1,96,2.915,1.686,-99,-99,
capital,figure,3,0,17,1,74,3.779,2.359,-99,-99,
smother,surgery,3,0,18,1,89,3.218,1.938,-99,-99,
nerve,bumper,11,1,19,1,98,3.124,1.475,-99,-99,
plant,worm,1,0,20,1,83,3.136,1.263,-99,-99,
calf,annoy,2,0,21,1,90,2.512,1.207,-99,-99,
process,joker,10,1,22,1,96,2.498,1.213,-99,-99,
pork,emperor,10,1,23,1,93,3.46,2.05,-99,-99,
fan,feature,1,0,24,1,34,2.917,1.427,-99,-99,
shrink,mafia,10,1,25,1,81,2.565,1.076,-99,-99,
find,clown,2,0,26,1,31,2.212,1.068,-99,-99,
rock,milk,10,1,27,1,80,3.27,1.66,-99,-99,
copy,bedroom,3,0,28,1,89,2.326,1.006,-99,-99,
link,crisis,12,1,29,1,84,3.185,1.515,-99,-99,
mill,feast,12,1,30,1,72,6.094,4.675,-99,-99,
knock,otter,12,1,31,1,66,11.446,8.776,-99,-99,
bacon,feud,3,0,32,1,32,5.766,4.216,-99,-99,
need,faucet,11,1,33,1,89,3.165,1.836,-99,-99,
bullet,walkway,11,1,34,1,77,3.189,1.316,-99,-99,
replace,roach,11,1,35,1,85,3.962,1.953,-99,-99,
anger,decay,1,0,36,1,68,4.137,2.208,-99,-99,
nerve,bumper,11,1,1,2,81,2.816,1.327,-99,-99,
fan,feature,1,0,2,2,30,2.365,1.226,-99,-99,
prison,loaf,3,0,3,2,78,3.325,2.146,-99,-99,
date,laugh,12,1,4,2,86,2.805,1.526,-99,-99,
port,cinema,2,0,5,2,79,5.776,2.367,-99,-99,
chicken,beet,1,0,6,2,76,3.925,1.256,-99,-99,
remind,foam,2,0,7,2,23,3.457,0.806,-99,-99,
rock,milk,10,1,8,2,86,5.536,2.127,-99,-99,
calf,annoy,2,0,9,2,79,2.67,1.356,-99,-99,
shrink,mafia,10,1,10,2,65,7.141,2.701,-99,-99,
knock,otter,12,1,11,2,74,7.925,1.665,-99,-99,
plant,worm,1,0,12,2,30,3.934,2.594,-99,-99,
link,crisis,12,1,13,2,77,2.981,1.707,-99,-99,
biology,temper,2,0,14,2,73,246.548,243.228,-99,-99,
need,faucet,11,1,15,2,67,3.275,1.695,-99,-99,
anger,decay,1,0,16,2,92,2.846,1.706,-99,-99,
bullet,walkway,11,1,17,2,72,2.396,1.217,-99,-99,
visit,glove,2,0,18,2,85,6.477,1.447,-99,-99,
copy,bedroom,3,0,19,2,76,6.346,4.682,-99,-99,
bacon,feud,3,0,20,2,72,3.267,1.778,-99,-99,
bleach,ruin,10,1,21,2,74,4.854,3.786,-99,-99,
bias,sirloin,1,0,22,2,73,3.933,2.713,-99,-99,
smother,surgery,3,0,23,2,82,3.107,1.478,-99,-99,
find,clown,2,0,24,2,84,2.135,0.845,-99,-99,
process,joker,10,1,25,2,66,2.829,1.267,-99,-99,
climax,saucer,11,1,26,2,76,2.734,1.414,-99,-99,
fee,chowder,3,0,27,2,82,2.215,0.916,-99,-99,
capital,figure,3,0,28,2,27,3.682,2.357,-99,-99,
replace,roach,11,1,29,2,28,2.851,1.501,-99,-99,
pork,emperor,10,1,30,2,74,2.778,1.618,-99,-99,
grip,beach,12,1,31,2,70,3.838,2.448,-99,-99,
glue,force,11,1,32,2,71,3.09,1.287,-99,-99,
mill,feast,12,1,33,2,71,2.508,1.082,-99,-99,
pea,bathtub,12,1,34,2,67,2.909,1.534,-99,-99,
want,ascent,10,1,35,2,77,2.865,1.556,-99,-99,
caring,skirt,1,0,36,2,86,3.524,1.855,-99,-99,
caring,skirt,1,0,1,3,72,6.506,2.857,0,-99,
knock,otter,12,1,2,3,68,3.125,1.566,0,16.22,
anger,decay,1,0,3,3,67,2.79,1.61,1,4.196,
plant,worm,1,0,4,3,76,2.346,1.185,1,1.458,
process,joker,10,1,5,3,90,2.245,1.046,1,2.999,
bleach,ruin,10,1,6,3,67,2.811,1.612,1,1.528,
nerve,bumper,11,1,7,3,67,2.646,1.186,1,1.469,
need,faucet,11,1,8,3,24,5.368,3.996,1,3.839,
pork,emperor,10,1,9,3,76,6.027,4.407,1,1.577,
port,cinema,2,0,10,3,30,4.165,1.15,1,1.619,
shrink,mafia,10,1,11,3,79,2.165,0.891,1,1.359,
visit,glove,2,0,12,3,80,3.377,2.198,1,31.854,
chicken,beet,1,0,13,3,78,2.9,1.306,1,1.999,
fan,feature,1,0,14,3,76,1.432,0.023,1,3.735,
link,crisis,12,1,15,3,72,7.07,5.177,1,1.623,
rock,milk,10,1,16,3,75,3.52,1.914,1,2.158,
pea,bathtub,12,1,17,3,79,2.248,1.157,1,3.523,
bias,sirloin,1,0,18,3,64,7.192,5.217,1,1.927,
smother,surgery,3,0,19,3,86,2.856,1.427,1,1.404,
capital,figure,3,0,20,3,74,2.505,1.186,1,1.69,
replace,roach,11,1,21,3,69,4.59,1.486,0,1.46,
find,clown,2,0,22,3,77,2.969,1.508,0,1.393,
prison,loaf,3,0,23,3,32,4.641,1.624,0,2.799,
biology,temper,2,0,24,3,25,6.055,1.436,0,1.435,
calf,annoy,2,0,25,3,31,2.761,1.577,0,1.629,
climax,saucer,11,1,26,3,39,4.485,3.356,0,1.934,
mill,feast,12,1,27,3,30,2.596,1.355,0,2.47,
bacon,feud,3,0,28,3,22,2.346,0.939,0,1.928,
grip,beach,12,1,29,3,32,4.916,1.097,0,14.479,
copy,bedroom,3,0,30,3,68,2.461,1.137,0,2.299,
date,laugh,12,1,31,3,64,11.356,10.058,0,2.074,
glue,force,11,1,32,3,66,3.536,1.516,0,3.129,
fee,chowder,3,0,33,3,72,4.946,3.367,0,2.099,
remind,foam,2,0,34,3,67,3.762,2.157,0,1.639,
want,ascent,10,1,35,3,79,18.526,9.797,0,2.994,
bullet,walkway,11,1,36,3,81,4.591,2.863,0,4.54,

