word1,word2,points,value,trial,list,jol,jolrt,jolrtfirst,choice,choicert,
pork,emperor,10,1,1,1,7,6.733,1.877,-99,-99,
port,cinema,2,0,2,1,12,2.271,1.306,-99,-99,
bacon,feud,3,0,3,1,24,1.961,1.044,-99,-99,
bullet,walkway,11,1,4,1,8,2.497,0.952,-99,-99,
plant,worm,1,0,5,1,19,2.148,0.78,-99,-99,
biology,temper,2,0,6,1,9,4.124,1.955,-99,-99,
caring,skirt,1,0,7,1,11,1.772,0.9,-99,-99,
process,joker,10,1,8,1,16,12.105,11.164,-99,-99,
bleach,ruin,10,1,9,1,50,3.212,1.379,-99,-99,
shrink,mafia,10,1,10,1,17,1.644,0.8,-99,-99,
climax,saucer,11,1,11,1,7,1.824,0.922,-99,-99,
calf,annoy,2,0,12,1,25,1.831,0.92,-99,-99,
remind,foam,2,0,13,1,29,2.146,0.701,-99,-99,
anger,decay,1,0,14,1,5,3.611,1.44,-99,-99,
chicken,beet,1,0,15,1,5,1.672,0.789,-99,-99,
bias,sirloin,1,0,16,1,13,2.834,0.859,-99,-99,
knock,otter,12,1,17,1,6,2.184,1.359,-99,-99,
link,crisis,12,1,18,1,14,1.881,0.822,-99,-99,
fee,chowder,3,0,19,1,11,9.229,8.175,-99,-99,
date,laugh,12,1,20,1,7,1.661,0.778,-99,-99,
find,clown,2,0,21,1,4,2.106,1.062,-99,-99,
need,faucet,11,1,22,1,5,4.215,2.112,-99,-99,
prison,loaf,3,0,23,1,12,8.655,6.069,-99,-99,
mill,feast,12,1,24,1,9,2.496,1.354,-99,-99,
smother,surgery,3,0,25,1,5,2.086,1.155,-99,-99,
fan,feature,1,0,26,1,11,2.222,0.857,-99,-99,
nerve,bumper,11,1,27,1,6,2.253,0.843,-99,-99,
replace,roach,11,1,28,1,6,1.974,1.008,-99,-99,
grip,beach,12,1,29,1,6,3.074,1.506,-99,-99,
visit,glove,2,0,30,1,6,2.253,0.922,-99,-99,
pea,bathtub,12,1,31,1,2,3.054,0.859,-99,-99,
copy,bedroom,3,0,32,1,15,2.09,1.157,-99,-99,
capital,figure,3,0,33,1,6,2.39,1.408,-99,-99,
want,ascent,10,1,34,1,4,2.264,0.825,-99,-99,
rock,milk,10,1,35,1,20,2.424,1.264,-99,-99,
glue,force,11,1,36,1,6,2.904,0.819,-99,-99,
smother,surgery,3,0,1,2,18,22.2,3.197,-99,-99,
fan,feature,1,0,2,2,22,3.313,1.328,-99,-99,
grip,beach,12,1,3,2,5,2.43,1.16,-99,-99,
bleach,ruin,10,1,4,2,11,2.201,0.737,-99,-99,
pea,bathtub,12,1,5,2,9,2.47,1.106,-99,-99,
capital,figure,3,0,6,2,9,8.915,6.056,-99,-99,
biology,temper,2,0,7,2,2,3.294,1.361,-99,-99,
chicken,beet,1,0,8,2,5,2.653,1.085,-99,-99,
port,cinema,2,0,9,2,20,1.714,0.878,-99,-99,
remind,foam,2,0,10,2,6,2.342,0.864,-99,-99,
nerve,bumper,11,1,11,2,8,1.844,0.884,-99,-99,
bullet,walkway,11,1,12,2,5,2.287,0.867,-99,-99,
calf,annoy,2,0,13,2,4,4.442,1.227,-99,-99,
find,clown,2,0,14,2,25,2.58,0.749,-99,-99,
copy,bedroom,3,0,15,2,19,1.512,0.7,-99,-99,
anger,decay,1,0,16,2,20,3.182,1.702,-99,-99,
need,faucet,11,1,17,2,7,3.684,1.239,-99,-99,
rock,milk,10,1,18,2,4,3.402,1.064,-99,-99,
glue,force,11,1,19,2,16,4.646,1,-99,-99,
plant,worm,1,0,20,2,4,2.731,0.927,-99,-99,
process,joker,10,1,21,2,5,3.281,1.032,-99,-99,
pork,emperor,10,1,22,2,6,1.949,0.996,-99,-99,
replace,roach,11,1,23,2,5,2.236,0.83,-99,-99,
shrink,mafia,10,1,24,2,6,2.923,2.019,-99,-99,
bacon,feud,3,0,25,2,6,3.795,1.667,-99,-99,
link,crisis,12,1,26,2,6,3.27,1.432,-99,-99,
caring,skirt,1,0,27,2,5,3.775,0.803,-99,-99,
knock,otter,12,1,28,2,4,2.513,1.094,-99,-99,
mill,feast,12,1,29,2,12,6.343,1.574,-99,-99,
climax,saucer,11,1,30,2,2,2.462,0.792,-99,-99,
prison,loaf,3,0,31,2,28,3.391,0.899,-99,-99,
date,laugh,12,1,32,2,7,2.078,1.153,-99,-99,
fee,chowder,3,0,33,2,4,2.433,1.014,-99,-99,
bias,sirloin,1,0,34,2,18,1.939,0.708,-99,-99,
want,ascent,10,1,35,2,7,3.613,0.675,-99,-99,
visit,glove,2,0,36,2,3,2.534,0.784,-99,-99,
process,joker,10,1,1,3,4,5.079,1.488,0,-99,
rock,milk,10,1,2,3,5,13.273,10.472,0,20.396,
chicken,beet,1,0,3,3,6,3.019,0.831,0,1.335,
bullet,walkway,11,1,4,3,5,2.193,1.282,0,1.35,
nerve,bumper,11,1,5,3,4,2.317,0.823,0,1.161,
need,faucet,11,1,6,3,4,1.609,0.758,0,1.217,
capital,figure,3,0,7,3,5,1.735,0.824,0,1.08,
anger,decay,1,0,8,3,4,1.964,1.092,0,1.304,
climax,saucer,11,1,9,3,6,2.053,1.086,0,1.142,
date,laugh,12,1,10,3,50,4.497,1.261,0,1.228,
copy,bedroom,3,0,11,3,14,2.519,0.843,0,1.337,
glue,force,11,1,12,3,8,2.365,0.845,0,1.605,
visit,glove,2,0,13,3,3,2.451,0.719,0,1.268,
want,ascent,10,1,14,3,7,3.159,0.931,0,2.398,
knock,otter,12,1,15,3,6,1.984,0.944,0,1.182,
pork,emperor,10,1,16,3,36,1.882,0.902,0,1.236,
bias,sirloin,1,0,17,3,6,2.702,0.798,0,1.37,
bacon,feud,3,0,18,3,4,2.424,0.811,0,1.619,
grip,beach,12,1,19,3,5,8.874,2.08,1,1.155,
pea,bathtub,12,1,20,3,10,3.66,1.256,1,1.768,
fee,chowder,3,0,21,3,7,2.214,0.707,1,0.931,
calf,annoy,2,0,22,3,6,2.054,1.041,1,1.181,
biology,temper,2,0,23,3,8,3.033,0.857,1,1.227,
replace,roach,11,1,24,3,6,2.209,0.778,1,1.699,
plant,worm,1,0,25,3,5,4.157,2.278,1,2.03,
mill,feast,12,1,26,3,8,2.135,0.825,1,1.348,
caring,skirt,1,0,27,3,12,1.633,0.597,1,1.279,
fan,feature,1,0,28,3,8,2.493,1.337,1,1.127,
smother,surgery,3,0,29,3,22,1.829,0.922,1,1.236,
remind,foam,2,0,30,3,6,2.792,0.86,1,1.245,
find,clown,2,0,31,3,28,1.785,0.874,1,1.181,
bleach,ruin,10,1,32,3,32,1.804,0.885,1,1.235,
port,cinema,2,0,33,3,22,1.677,0.793,1,1.242,
shrink,mafia,10,1,34,3,31,2.077,0.732,1,1.252,
link,crisis,12,1,35,3,5,2.439,0.648,1,1.337,
prison,loaf,3,0,36,3,30,1.653,0.647,1,1.221,

