word1,word2,points,value,trial,list,jol,jolrt,jolrtfirst,choice,choicert,
climax,saucer,11,1,1,1,33,22.574,17.014,-99,-99,
caring,skirt,1,0,2,1,41,11.576,5.833,-99,-99,
plant,worm,1,0,3,1,65,10.354,1.386,-99,-99,
bias,sirloin,1,0,4,1,23,8.308,1.723,-99,-99,
knock,otter,12,1,5,1,43,3.703,1.392,-99,-99,
grip,beach,12,1,6,1,41,7.245,2.919,-99,-99,
bleach,ruin,10,1,7,1,55,6.532,3.362,-99,-99,
calf,annoy,2,0,8,1,39,6.879,2.271,-99,-99,
mill,feast,12,1,9,1,44,7.625,4.154,-99,-99,
glue,force,11,1,10,1,53,7.316,3.108,-99,-99,
bullet,walkway,11,1,11,1,38,7.686,3.918,-99,-99,
shrink,mafia,10,1,12,1,40,6.714,2.549,-99,-99,
prison,loaf,3,0,13,1,45,6.382,2.663,-99,-99,
find,clown,2,0,14,1,42,6.286,2.502,-99,-99,
fan,feature,1,0,15,1,36,8.257,4.236,-99,-99,
capital,figure,3,0,16,1,42,6.597,4.251,-99,-99,
port,cinema,2,0,17,1,34,6.678,4.454,-99,-99,
smother,surgery,3,0,18,1,38,6.834,4.257,-99,-99,
need,faucet,11,1,19,1,27,14.783,6.039,-99,-99,
pork,emperor,10,1,20,1,40,7.878,5.286,-99,-99,
nerve,bumper,11,1,21,1,42,9.479,4.679,-99,-99,
replace,roach,11,1,22,1,31,7.965,3.611,-99,-99,
rock,milk,10,1,23,1,33,10.275,7.538,-99,-99,
process,joker,10,1,24,1,22,6.305,3.01,-99,-99,
fee,chowder,3,0,25,1,31,7.979,2.21,-99,-99,
link,crisis,12,1,26,1,34,7.129,2.869,-99,-99,
bacon,feud,3,0,27,1,38,5.087,1.824,-99,-99,
anger,decay,1,0,28,1,35,6.301,3.334,-99,-99,
copy,bedroom,3,0,29,1,35,7.946,3.77,-99,-99,
visit,glove,2,0,30,1,25,6.347,3.443,-99,-99,
pea,bathtub,12,1,31,1,29,6.887,4.342,-99,-99,
want,ascent,10,1,32,1,25,10.07,5.376,-99,-99,
date,laugh,12,1,33,1,45,5.686,2.19,-99,-99,
chicken,beet,1,0,34,1,42,8.239,5.07,-99,-99,
biology,temper,2,0,35,1,28,4.878,1.742,-99,-99,
remind,foam,2,0,36,1,19,6.668,2.5,-99,-99,
copy,bedroom,3,0,1,2,40,12.132,7.331,-99,-99,
mill,feast,12,1,2,2,47,4.244,1.3,-99,-99,
remind,foam,2,0,3,2,24,7.672,1.137,-99,-99,
prison,loaf,3,0,4,2,45,5.94,1.11,-99,-99,
date,laugh,12,1,5,2,50,4.064,1.103,-99,-99,
climax,saucer,11,1,6,2,34,6.024,1.28,-99,-99,
bleach,ruin,10,1,7,2,50,4.314,1.082,-99,-99,
smother,surgery,3,0,8,2,24,5.651,1.77,-99,-99,
anger,decay,1,0,9,2,33,4.028,0.885,-99,-99,
capital,figure,3,0,10,2,37,6.94,3.38,-99,-99,
find,clown,2,0,11,2,38,4.009,1.678,-99,-99,
replace,roach,11,1,12,2,36,3.374,1.239,-99,-99,
rock,milk,10,1,13,2,35,5.789,1.295,-99,-99,
pea,bathtub,12,1,14,2,30,5.018,1.41,-99,-99,
bullet,walkway,11,1,15,2,33,7.867,1.809,-99,-99,
link,crisis,12,1,16,2,35,4.542,1.624,-99,-99,
pork,emperor,10,1,17,2,39,6.654,1.118,-99,-99,
nerve,bumper,11,1,18,2,37,7.534,1.957,-99,-99,
visit,glove,2,0,19,2,33,3.155,1.058,-99,-99,
knock,otter,12,1,20,2,35,6.85,2.963,-99,-99,
glue,force,11,1,21,2,47,4.331,1.322,-99,-99,
caring,skirt,1,0,22,2,27,6.515,1.097,-99,-99,
calf,annoy,2,0,23,2,37,4.063,1.774,-99,-99,
port,cinema,2,0,24,2,33,4.029,1.406,-99,-99,
bias,sirloin,1,0,25,2,21,9.586,6.482,-99,-99,
plant,worm,1,0,26,2,66,5.245,0.845,-99,-99,
bacon,feud,3,0,27,2,37,6.054,2.287,-99,-99,
process,joker,10,1,28,2,26,10.527,6.247,-99,-99,
grip,beach,12,1,29,2,37,7.377,3.994,-99,-99,
chicken,beet,1,0,30,2,39,6.45,1.371,-99,-99,
biology,temper,2,0,31,2,29,7.258,4.207,-99,-99,
want,ascent,10,1,32,2,22,8.174,4.35,-99,-99,
fan,feature,1,0,33,2,25,4.886,1.323,-99,-99,
fee,chowder,3,0,34,2,33,5.047,1.536,-99,-99,
shrink,mafia,10,1,35,2,37,6.457,2.924,-99,-99,
need,faucet,11,1,36,2,24,6.043,2.475,-99,-99,
rock,milk,10,1,1,3,36,11.729,4.904,0,-99,
want,ascent,10,1,2,3,25,6.12,1.575,1,10.15,
process,joker,10,1,3,3,31,3.959,0.953,1,1.239,
fan,feature,1,0,4,3,25,6.506,2.906,0,1.071,
grip,beach,12,1,5,3,36,4.855,2.039,1,1.325,
calf,annoy,2,0,6,3,37,8.627,1.147,0,0.815,
pea,bathtub,12,1,7,3,31,10.75,1.939,1,1.239,
nerve,bumper,11,1,8,3,35,5.146,1.466,1,1.359,
fee,chowder,3,0,9,3,33,6.342,2.792,0,1.725,
replace,roach,11,1,10,3,25,6.949,3.652,1,0.847,
link,crisis,12,1,11,3,32,7.288,1.769,0,0.911,
chicken,beet,1,0,12,3,38,4.499,1.736,0,1.983,
bacon,feud,3,0,13,3,30,6.043,1.627,0,1.054,
shrink,mafia,10,1,14,3,40,5.097,0.705,1,1.455,
glue,force,11,1,15,3,46,9.082,2.384,0,0.992,
port,cinema,2,0,16,3,30,5.017,1.146,0,1.543,
climax,saucer,11,1,17,3,29,4.246,1.174,1,1.192,
bullet,walkway,11,1,18,3,30,4.954,0.746,1,1.111,
smother,surgery,3,0,19,3,31,7.094,1.508,0,0.864,
caring,skirt,1,0,20,3,26,6.005,1.245,0,1.159,
bleach,ruin,10,1,21,3,40,4.296,1.232,1,1.119,
find,clown,2,0,22,3,40,5.662,1.615,0,0.975,
copy,bedroom,3,0,23,3,28,5.449,1.373,0,1.047,
plant,worm,1,0,24,3,66,6.897,1.104,0,1.119,
pork,emperor,10,1,25,3,38,4.282,0.997,1,1.231,
visit,glove,2,0,26,3,27,8.979,0.932,0,1.135,
capital,figure,3,0,27,3,34,5.934,1.07,0,2.151,
mill,feast,12,1,28,3,38,3.544,0.88,1,1.223,
biology,temper,2,0,29,3,29,3.514,1.205,0,1.046,
knock,otter,12,1,30,3,36,5.241,1.225,1,1.382,
bias,sirloin,1,0,31,3,27,6.144,1.807,0,0.944,
anger,decay,1,0,32,3,30,4.786,1.213,1,2.303,
need,faucet,11,1,33,3,28,6.545,2.743,1,1.519,
remind,foam,2,0,34,3,20,6.44,2.811,1,0.889,
prison,loaf,3,0,35,3,42,4.254,1.166,1,1.239,
date,laugh,12,1,36,3,45,3.166,0.588,1,1.958,

