word1,word2,points,value,trial,list,jol,jolrt,jolrtfirst,choice,choicert,
fee,chowder,3,0,1,1,100,11.19,9.237,-99,-99,
capital,figure,3,0,2,1,100,8.469,6.538,-99,-99,
climax,saucer,11,1,3,1,100,13.144,11.281,-99,-99,
bleach,ruin,10,1,4,1,100,12.447,8.453,-99,-99,
rock,milk,10,1,5,1,100,6.145,4.177,-99,-99,
shrink,mafia,10,1,6,1,100,6.899,5.454,-99,-99,
date,laugh,12,1,7,1,100,16.088,14.631,-99,-99,
smother,surgery,3,0,8,1,100,9.299,7.924,-99,-99,
link,crisis,12,1,9,1,100,8.077,6.53,-99,-99,
replace,roach,11,1,10,1,100,8.016,6.511,-99,-99,
bias,sirloin,1,0,11,1,100,10.185,8.715,-99,-99,
visit,glove,2,0,12,1,100,10.307,8.925,-99,-99,
bullet,walkway,11,1,13,1,100,11.346,9.373,-99,-99,
nerve,bumper,11,1,14,1,100,9.384,7.713,-99,-99,
want,ascent,10,1,15,1,100,9.979,8.478,-99,-99,
remind,foam,2,0,16,1,100,9.76,8.384,-99,-99,
biology,temper,2,0,17,1,100,12.132,10.483,-99,-99,
copy,bedroom,3,0,18,1,100,11.027,9.065,-99,-99,
chicken,beet,1,0,19,1,100,12.781,10.439,-99,-99,
bacon,feud,3,0,20,1,100,9.563,7.655,-99,-99,
mill,feast,12,1,21,1,100,10.86,9.525,-99,-99,
find,clown,2,0,22,1,100,7.297,5.982,-99,-99,
pea,bathtub,12,1,23,1,100,7.717,6.353,-99,-99,
caring,skirt,1,0,24,1,100,8.176,6.844,-99,-99,
calf,annoy,2,0,25,1,100,8.802,5.946,-99,-99,
grip,beach,12,1,26,1,100,8.041,6.535,-99,-99,
fan,feature,1,0,27,1,100,12.126,10.298,-99,-99,
process,joker,10,1,28,1,100,9.784,8.226,-99,-99,
need,faucet,11,1,29,1,100,9.069,7.667,-99,-99,
anger,decay,1,0,30,1,100,9.328,7.871,-99,-99,
prison,loaf,3,0,31,1,100,10.402,9.14,-99,-99,
glue,force,11,1,32,1,100,7.158,5.293,-99,-99,
plant,worm,1,0,33,1,100,10.658,9.325,-99,-99,
knock,otter,12,1,34,1,100,10.472,9.068,-99,-99,
pork,emperor,10,1,35,1,100,10.162,8.631,-99,-99,
port,cinema,2,0,36,1,100,8.196,6.751,-99,-99,
visit,glove,2,0,1,2,100,3.41,1.846,-99,-99,
pea,bathtub,12,1,2,2,100,3.129,1.874,-99,-99,
bleach,ruin,10,1,3,2,100,10.571,9.287,-99,-99,
remind,foam,2,0,4,2,100,4.559,3.183,-99,-99,
need,faucet,11,1,5,2,100,4.372,2.406,-99,-99,
biology,temper,2,0,6,2,100,3.196,1.624,-99,-99,
glue,force,11,1,7,2,100,2.612,1.439,-99,-99,
caring,skirt,1,0,8,2,100,2.876,1.513,-99,-99,
calf,annoy,2,0,9,2,100,2.835,1.641,-99,-99,
copy,bedroom,3,0,10,2,100,7.731,6.287,-99,-99,
want,ascent,10,1,11,2,100,2.935,1.638,-99,-99,
bacon,feud,3,0,12,2,100,4.091,2.89,-99,-99,
mill,feast,12,1,13,2,100,6.095,4.453,-99,-99,
prison,loaf,3,0,14,2,100,4.885,2.968,-99,-99,
find,clown,2,0,15,2,100,3.438,1.69,-99,-99,
knock,otter,12,1,16,2,100,4.023,2.163,-99,-99,
rock,milk,10,1,17,2,100,5.613,1.899,-99,-99,
link,crisis,12,1,18,2,100,3.461,1.88,-99,-99,
process,joker,10,1,19,2,100,3.98,2.441,-99,-99,
chicken,beet,1,0,20,2,100,3.067,1.814,-99,-99,
fee,chowder,3,0,21,2,100,6.946,1.456,-99,-99,
plant,worm,1,0,22,2,100,5.468,2.894,-99,-99,
replace,roach,11,1,23,2,100,3.656,1.839,-99,-99,
smother,surgery,3,0,24,2,100,3.283,1.664,-99,-99,
capital,figure,3,0,25,2,100,4.203,2.585,-99,-99,
bias,sirloin,1,0,26,2,100,4.853,3.418,-99,-99,
shrink,mafia,10,1,27,2,100,3.356,1.966,-99,-99,
climax,saucer,11,1,28,2,100,3.07,1.778,-99,-99,
bullet,walkway,11,1,29,2,100,3.819,2.369,-99,-99,
nerve,bumper,11,1,30,2,100,3.048,1.724,-99,-99,
date,laugh,12,1,31,2,100,7.963,6.478,-99,-99,
fan,feature,1,0,32,2,100,8.59,6.081,-99,-99,
anger,decay,1,0,33,2,100,3.339,1.859,-99,-99,
grip,beach,12,1,34,2,100,4.644,3.178,-99,-99,
port,cinema,2,0,35,2,100,2.773,1.525,-99,-99,
pork,emperor,10,1,36,2,100,3.088,1.705,-99,-99,
process,joker,10,1,1,3,100,7.79,4.113,1,-99,
fan,feature,1,0,2,3,100,10.336,8.89,1,2.188,
anger,decay,1,0,3,3,100,4.615,3.356,1,6.871,
copy,bedroom,3,0,4,3,100,6.418,5.148,1,1.673,
rock,milk,10,1,5,3,100,3.882,2.428,1,1.557,
capital,figure,3,0,6,3,100,3.524,2.089,1,1.742,
replace,roach,11,1,7,3,100,3.514,2.176,1,1.772,
caring,skirt,1,0,8,3,100,3.329,1.873,1,1.622,
visit,glove,2,0,9,3,100,3.168,1.808,1,1.678,
mill,feast,12,1,10,3,100,3.25,1.729,1,1.782,
shrink,mafia,10,1,11,3,100,3.599,1.746,1,1.696,
pork,emperor,10,1,12,3,100,8.763,7.108,1,2.523,
fee,chowder,3,0,13,3,100,3.137,1.825,1,1.586,
date,laugh,12,1,14,3,100,6.472,4.73,1,1.98,
calf,annoy,2,0,15,3,100,3.255,1.587,1,3.951,
find,clown,2,0,16,3,100,3.88,2.325,1,4.1,
bacon,feud,3,0,17,3,100,3.264,1.56,1,1.501,
nerve,bumper,11,1,18,3,100,3.579,1.862,1,1.819,
need,faucet,11,1,19,3,100,3.208,1.908,0,1.585,
biology,temper,2,0,20,3,100,2.67,1.385,0,20.051,
knock,otter,12,1,21,3,100,3.084,1.464,0,1.659,
plant,worm,1,0,22,3,100,3.289,1.774,0,1.545,
smother,surgery,3,0,23,3,100,3.028,1.423,0,1.442,
want,ascent,10,1,24,3,100,5.385,4.009,0,1.807,
bleach,ruin,10,1,25,3,100,3.062,1.823,0,2.485,
port,cinema,2,0,26,3,100,7.777,4.725,0,1.437,
chicken,beet,1,0,27,3,100,2.889,1.453,0,9.585,
link,crisis,12,1,28,3,100,4.425,2.78,0,1.625,
pea,bathtub,12,1,29,3,100,3.416,2.154,0,6.984,
glue,force,11,1,30,3,100,3.053,1.85,0,2.054,
remind,foam,2,0,31,3,100,3.11,1.759,0,1.684,
grip,beach,12,1,32,3,100,3.958,2.789,0,2.799,
bullet,walkway,11,1,33,3,100,3.795,2.335,0,3.977,
prison,loaf,3,0,34,3,100,3.763,2.31,0,3.089,
climax,saucer,11,1,35,3,100,3.39,1.869,0,1.452,
bias,sirloin,1,0,36,3,100,3.058,1.65,0,1.571,

