word1,word2,points,value,trial,list,jol,jolrt,jolrtfirst,choice,choicert,
fee,chowder,3,0,1,1,60,13.752,6.957,-99,-99,
climax,saucer,11,1,2,1,65,8.972,2.927,-99,-99,
nerve,bumper,11,1,3,1,40,8.706,3.849,-99,-99,
capital,figure,3,0,4,1,40,7.42,2.632,-99,-99,
bias,sirloin,1,0,5,1,20,4.421,1.213,-99,-99,
bleach,ruin,10,1,6,1,70,7.494,2.338,-99,-99,
process,joker,10,1,7,1,42,5.109,2.111,-99,-99,
pea,bathtub,12,1,8,1,56,4.22,2.005,-99,-99,
plant,worm,1,0,9,1,58,5.202,1.636,-99,-99,
bacon,feud,3,0,10,1,19,4.982,1.615,-99,-99,
caring,skirt,1,0,11,1,14,4.825,1.22,-99,-99,
biology,temper,2,0,12,1,9,4.723,1.839,-99,-99,
calf,annoy,2,0,13,1,10,3.67,1.615,-99,-99,
fan,feature,1,0,14,1,62,2.762,1.207,-99,-99,
glue,force,11,1,15,1,59,4.28,1.532,-99,-99,
date,laugh,12,1,16,1,59,3.624,1.578,-99,-99,
rock,milk,10,1,17,1,41,4.014,1.64,-99,-99,
remind,foam,2,0,18,1,17,2.939,1.115,-99,-99,
want,ascent,10,1,19,1,26,4.029,2.096,-99,-99,
knock,otter,12,1,20,1,58,2.86,1.418,-99,-99,
find,clown,2,0,21,1,22,3.967,1.554,-99,-99,
chicken,beet,1,0,22,1,11,5.617,1.57,-99,-99,
grip,beach,12,1,23,1,61,4.422,2.59,-99,-99,
port,cinema,2,0,24,1,6,6.03,1.287,-99,-99,
pork,emperor,10,1,25,1,53,6.282,1.954,-99,-99,
bullet,walkway,11,1,26,1,39,6.472,2.466,-99,-99,
visit,glove,2,0,27,1,18,3.02,1.275,-99,-99,
prison,loaf,3,0,28,1,34,3.111,1.054,-99,-99,
replace,roach,11,1,29,1,59,4.685,2.875,-99,-99,
smother,surgery,3,0,30,1,10,3.965,1.836,-99,-99,
anger,decay,1,0,31,1,33,2.507,0.904,-99,-99,
shrink,mafia,10,1,32,1,60,5.221,2.996,-99,-99,
mill,feast,12,1,33,1,62,5.348,1.393,-99,-99,
need,faucet,11,1,34,1,58,3.33,1.621,-99,-99,
link,crisis,12,1,35,1,42,3.312,1.533,-99,-99,
copy,bedroom,3,0,36,1,18,2.7,1.2,-99,-99,
smother,surgery,3,0,1,2,8,6.239,2.078,-99,-99,
prison,loaf,3,0,2,2,29,7.157,1.205,-99,-99,
climax,saucer,11,1,3,2,57,4.783,2.341,-99,-99,
fee,chowder,3,0,4,2,18,4.852,1.706,-99,-99,
link,crisis,12,1,5,2,43,4.551,2.057,-99,-99,
remind,foam,2,0,6,2,39,3.928,1.557,-99,-99,
chicken,beet,1,0,7,2,1,3.479,1.105,-99,-99,
need,faucet,11,1,8,2,58,4.681,1.706,-99,-99,
biology,temper,2,0,9,2,1,3.936,2.287,-99,-99,
bacon,feud,3,0,10,2,1,3.844,1.92,-99,-99,
capital,figure,3,0,11,2,55,4.585,1.541,-99,-99,
process,joker,10,1,12,2,35,5.246,3.628,-99,-99,
port,cinema,2,0,13,2,3,3.172,1.364,-99,-99,
bullet,walkway,11,1,14,2,59,3.981,1.652,-99,-99,
caring,skirt,1,0,15,2,1,2.744,1.268,-99,-99,
want,ascent,10,1,16,2,27,12.611,5.01,-99,-99,
nerve,bumper,11,1,17,2,60,3.65,1.461,-99,-99,
calf,annoy,2,0,18,2,5,3.431,1.182,-99,-99,
fan,feature,1,0,19,2,55,2.869,1.275,-99,-99,
glue,force,11,1,20,2,57,12.115,9.849,-99,-99,
bias,sirloin,1,0,21,2,3,4.455,1.554,-99,-99,
shrink,mafia,10,1,22,2,58,5.101,2.876,-99,-99,
pea,bathtub,12,1,23,2,59,4.736,1.457,-99,-99,
grip,beach,12,1,24,2,59,3.643,1.368,-99,-99,
mill,feast,12,1,25,2,60,3.188,1.158,-99,-99,
visit,glove,2,0,26,2,7,3.618,0.986,-99,-99,
knock,otter,12,1,27,2,39,4.081,1.806,-99,-99,
find,clown,2,0,28,2,1,3.191,1.154,-99,-99,
copy,bedroom,3,0,29,2,4,3.139,1.124,-99,-99,
pork,emperor,10,1,30,2,57,3.313,1.428,-99,-99,
date,laugh,12,1,31,2,61,7.607,5.448,-99,-99,
plant,worm,1,0,32,2,53,2.578,1.13,-99,-99,
anger,decay,1,0,33,2,22,6.268,0.88,-99,-99,
bleach,ruin,10,1,34,2,59,3.457,1.657,-99,-99,
replace,roach,11,1,35,2,41,5.839,4.037,-99,-99,
rock,milk,10,1,36,2,43,8.389,6.689,-99,-99,
need,faucet,11,1,1,3,59,4.656,2.415,1,-99,
knock,otter,12,1,2,3,40,4.097,2.013,0,7.273,
fan,feature,1,0,3,3,55,4.085,1.849,0,3.158,
replace,roach,11,1,4,3,44,3.787,2.138,1,7.265,
nerve,bumper,11,1,5,3,58,2.704,1.073,1,1.338,
want,ascent,10,1,6,3,40,2.793,1.298,0,1.481,
bleach,ruin,10,1,7,3,65,2.551,0.973,1,1.404,
date,laugh,12,1,8,3,63,2.888,1.419,1,1.533,
glue,force,11,1,9,3,57,3.198,1.489,1,1.396,
port,cinema,2,0,10,3,10,2.907,1.117,0,1.183,
capital,figure,3,0,11,3,57,2.804,1.405,0,1.123,
copy,bedroom,3,0,12,3,8,3.045,1.082,0,1.277,
grip,beach,12,1,13,3,61,3.437,1.444,1,1.242,
bias,sirloin,1,0,14,3,9,3.114,1.038,0,1.799,
chicken,beet,1,0,15,3,2,2.898,1.075,0,1.19,
smother,surgery,3,0,16,3,1,3.449,1.588,0,1.036,
remind,foam,2,0,17,3,2,3.054,1.296,0,1.394,
bacon,feud,3,0,18,3,6,4.219,1.74,0,1.281,
shrink,mafia,10,1,19,3,58,3.342,1.552,1,1.381,
plant,worm,1,0,20,3,55,2.801,0.894,0,1.112,
rock,milk,10,1,21,3,36,3.596,1.652,0,1.264,
biology,temper,2,0,22,3,1,3.549,1.399,0,1.517,
caring,skirt,1,0,23,3,1,2.933,1.39,0,1.363,
pea,bathtub,12,1,24,3,58,2.602,1.086,1,1.043,
bullet,walkway,11,1,25,3,61,2.711,1.347,1,1.311,
find,clown,2,0,26,3,10,3.047,1.224,0,1.195,
mill,feast,12,1,27,3,60,2.345,0.891,1,1.349,
calf,annoy,2,0,28,3,4,3.045,1.429,0,1.181,
prison,loaf,3,0,29,3,26,2.921,1.121,0,1.763,
pork,emperor,10,1,30,3,57,2.779,1.147,1,2.273,
fee,chowder,3,0,31,3,40,14.18,12.449,1,1.586,
link,crisis,12,1,32,3,42,6.931,1.665,1,1.944,
anger,decay,1,0,33,3,1,4.13,1.483,1,1.692,
process,joker,10,1,34,3,38,3.023,1.572,1,1.341,
visit,glove,2,0,35,3,1,2.748,1.207,1,1.158,
climax,saucer,11,1,36,3,57,2.856,1.101,1,1.281,

