word1,word2,points,value,trial,list,jol,jolrt,jolrtfirst,choice,choicert,
anger,decay,1,0,1,1,58,16.38,13.23,-99,-99,
want,ascent,10,1,2,1,65,7.581,5.591,-99,-99,
knock,otter,12,1,3,1,43,8.477,6.655,-99,-99,
plant,worm,1,0,4,1,58,3.673,1.745,-99,-99,
visit,glove,2,0,5,1,35,6.386,2.534,-99,-99,
capital,figure,3,0,6,1,53,12.603,3.809,-99,-99,
port,cinema,2,0,7,1,57,9.747,7.338,-99,-99,
chicken,beet,1,0,8,1,55,13.658,11.334,-99,-99,
pea,bathtub,12,1,9,1,68,15.175,6.525,-99,-99,
fan,feature,1,0,10,1,24,8.4,5.591,-99,-99,
link,crisis,12,1,11,1,55,15.291,11.193,-99,-99,
caring,skirt,1,0,12,1,19,6.755,2.955,-99,-99,
find,clown,2,0,13,1,22,17.274,14.864,-99,-99,
biology,temper,2,0,14,1,52,7.816,4.528,-99,-99,
grip,beach,12,1,15,1,52,8.284,6.48,-99,-99,
nerve,bumper,11,1,16,1,58,8.99,7.032,-99,-99,
bullet,walkway,11,1,17,1,58,7.072,4.595,-99,-99,
process,joker,10,1,18,1,41,6.347,4.248,-99,-99,
bacon,feud,3,0,19,1,37,3.181,1.525,-99,-99,
date,laugh,12,1,20,1,59,22.287,20.133,-99,-99,
fee,chowder,3,0,21,1,21,6.99,2.141,-99,-99,
pork,emperor,10,1,22,1,64,7.73,5.77,-99,-99,
replace,roach,11,1,23,1,56,8.517,6.143,-99,-99,
rock,milk,10,1,24,1,52,12.367,10.945,-99,-99,
bias,sirloin,1,0,25,1,14,4.538,2.203,-99,-99,
climax,saucer,11,1,26,1,58,16.58,15.133,-99,-99,
smother,surgery,3,0,27,1,29,8.035,6.115,-99,-99,
calf,annoy,2,0,28,1,11,4.748,3.116,-99,-99,
shrink,mafia,10,1,29,1,60,4.335,2.044,-99,-99,
glue,force,11,1,30,1,55,8.197,5.902,-99,-99,
prison,loaf,3,0,31,1,39,3.475,2.091,-99,-99,
remind,foam,2,0,32,1,39,3.732,1.966,-99,-99,
mill,feast,12,1,33,1,46,3.202,1.505,-99,-99,
copy,bedroom,3,0,34,1,38,3.485,1.539,-99,-99,
bleach,ruin,10,1,35,1,56,4.542,2.868,-99,-99,
need,faucet,11,1,36,1,59,9.978,7.48,-99,-99,
port,cinema,2,0,1,2,55,9.262,6.813,-99,-99,
mill,feast,12,1,2,2,43,8.926,6.777,-99,-99,
pork,emperor,10,1,3,2,67,5.208,2.055,-99,-99,
caring,skirt,1,0,4,2,33,2.897,1.236,-99,-99,
prison,loaf,3,0,5,2,33,6.422,4.396,-99,-99,
calf,annoy,2,0,6,2,28,3.462,1.855,-99,-99,
capital,figure,3,0,7,2,39,7.132,1.664,-99,-99,
copy,bedroom,3,0,8,2,55,3.894,1.742,-99,-99,
pea,bathtub,12,1,9,2,63,4.581,1.74,-99,-99,
biology,temper,2,0,10,2,58,3.595,1.709,-99,-99,
shrink,mafia,10,1,11,2,64,2.904,1.424,-99,-99,
grip,beach,12,1,12,2,54,4.03,2.73,-99,-99,
smother,surgery,3,0,13,2,39,3.154,1.511,-99,-99,
bullet,walkway,11,1,14,2,64,11.206,8.876,-99,-99,
fan,feature,1,0,15,2,35,4.493,1.462,-99,-99,
fee,chowder,3,0,16,2,39,4.12,1.638,-99,-99,
date,laugh,12,1,17,2,60,23.185,20.691,-99,-99,
chicken,beet,1,0,18,2,52,5.217,2.941,-99,-99,
nerve,bumper,11,1,19,2,60,5.825,2.052,-99,-99,
replace,roach,11,1,20,2,67,12.705,10.198,-99,-99,
remind,foam,2,0,21,2,56,5.032,1.924,-99,-99,
climax,saucer,11,1,22,2,56,3.717,1.057,-99,-99,
anger,decay,1,0,23,2,39,3.852,1.933,-99,-99,
glue,force,11,1,24,2,56,5.883,2.46,-99,-99,
link,crisis,12,1,25,2,62,9.598,7.488,-99,-99,
visit,glove,2,0,26,2,27,3.91,1.725,-99,-99,
find,clown,2,0,27,2,27,7.464,5.638,-99,-99,
plant,worm,1,0,28,2,66,4.026,2.425,-99,-99,
want,ascent,10,1,29,2,56,5.127,2.904,-99,-99,
rock,milk,10,1,30,2,62,2.989,1.569,-99,-99,
bacon,feud,3,0,31,2,14,3.636,1.402,-99,-99,
process,joker,10,1,32,2,54,3.863,2.229,-99,-99,
need,faucet,11,1,33,2,60,5.149,1.197,-99,-99,
bias,sirloin,1,0,34,2,17,3.043,1.059,-99,-99,
bleach,ruin,10,1,35,2,59,9.47,6.531,-99,-99,
knock,otter,12,1,36,2,58,7.908,4.532,-99,-99,
find,clown,2,0,1,3,35,8.949,6.06,0,-99,
link,crisis,12,1,2,3,62,5.062,3.353,1,8.601,
remind,foam,2,0,3,3,31,5.826,3.386,0,2.781,
port,cinema,2,0,4,3,58,3.874,1.444,0,4.64,
pea,bathtub,12,1,5,3,70,5.474,2.045,1,2.387,
visit,glove,2,0,6,3,32,4.405,2.533,0,1.36,
rock,milk,10,1,7,3,70,3.715,1.54,1,1.434,
grip,beach,12,1,8,3,67,10.614,8.24,1,3.11,
bias,sirloin,1,0,9,3,26,4.231,2.098,0,1.738,
mill,feast,12,1,10,3,62,6.385,1.896,1,1.529,
copy,bedroom,3,0,11,3,27,32.856,29.976,0,1.085,
biology,temper,2,0,12,3,56,3.958,1.609,0,2.928,
bacon,feud,3,0,13,3,26,3.162,1.571,0,0.996,
pork,emperor,10,1,14,3,71,3.127,1.392,1,2.641,
need,faucet,11,1,15,3,66,3.636,1.719,1,2.179,
calf,annoy,2,0,16,3,29,3.431,1.634,0,1.939,
process,joker,10,1,17,3,74,4.675,1.907,1,1.206,
bleach,ruin,10,1,18,3,69,3.469,1.392,1,1.219,
bullet,walkway,11,1,19,3,72,2.975,1.231,1,2.111,
glue,force,11,1,20,3,78,3.401,1.445,1,1.543,
caring,skirt,1,0,21,3,22,3.249,1.34,0,1.553,
capital,figure,3,0,22,3,26,3.282,1.385,0,3.665,
anger,decay,1,0,23,3,60,4.14,1.732,0,2.259,
replace,roach,11,1,24,3,76,4.736,3.305,1,2.46,
climax,saucer,11,1,25,3,74,3.407,1.209,1,1.584,
fan,feature,1,0,26,3,23,8.05,6.019,0,1.85,
nerve,bumper,11,1,27,3,69,4.299,2.328,1,1.363,
smother,surgery,3,0,28,3,25,3.29,1.397,0,1.67,
shrink,mafia,10,1,29,3,74,3.898,1.725,1,2.504,
knock,otter,12,1,30,3,75,3.08,1.325,1,3.044,
prison,loaf,3,0,31,3,22,3.771,2.34,0,1.868,
want,ascent,10,1,32,3,79,3.363,1.728,1,1.496,
fee,chowder,3,0,33,3,26,2.633,1.374,0,1.29,
plant,worm,1,0,34,3,36,3.578,2.108,0,1.395,
date,laugh,12,1,35,3,71,3.695,2.018,1,1.37,
chicken,beet,1,0,36,3,29,4.028,1.64,0,1.279,

