word1,word2,points,value,trial,list,jol,jolrt,jolrtfirst,choice,choicert,
calf,annoy,2,0,1,1,80,89.796,83.743,-99,-99,
biology,temper,2,0,2,1,90,18.757,12.934,-99,-99,
caring,skirt,1,0,3,1,80,25.497,21.036,-99,-99,
smother,surgery,3,0,4,1,70,12.046,10.206,-99,-99,
link,crisis,12,1,5,1,74,12.859,10.804,-99,-99,
knock,otter,12,1,6,1,80,7.671,5.707,-99,-99,
fee,chowder,3,0,7,1,81,10.045,8.69,-99,-99,
climax,saucer,11,1,8,1,88,20.385,5.087,-99,-99,
copy,bedroom,3,0,9,1,76,8.433,5.026,-99,-99,
date,laugh,12,1,10,1,75,15.427,14.019,-99,-99,
want,ascent,10,1,11,1,73,9.579,7.523,-99,-99,
prison,loaf,3,0,12,1,62,20.905,19.578,-99,-99,
shrink,mafia,10,1,13,1,71,11.486,9.819,-99,-99,
anger,decay,1,0,14,1,69,11.779,10.373,-99,-99,
bleach,ruin,10,1,15,1,59,14.719,12.092,-99,-99,
find,clown,2,0,16,1,51,11.392,8.706,-99,-99,
visit,glove,2,0,17,1,57,9.627,7.528,-99,-99,
grip,beach,12,1,18,1,76,8.355,6.136,-99,-99,
need,faucet,11,1,19,1,78,7.682,6.46,-99,-99,
replace,roach,11,1,20,1,74,6.913,5.989,-99,-99,
remind,foam,2,0,21,1,29,2.512,1.121,-99,-99,
pea,bathtub,12,1,22,1,68,10.028,9.006,-99,-99,
rock,milk,10,1,23,1,92,6.561,3.851,-99,-99,
plant,worm,1,0,24,1,39,5.37,4.164,-99,-99,
nerve,bumper,11,1,25,1,58,59.098,58.003,-99,-99,
port,cinema,2,0,26,1,88,8.753,7.699,-99,-99,
glue,force,11,1,27,1,60,7.843,6.303,-99,-99,
bias,sirloin,1,0,28,1,16,8.12,6.522,-99,-99,
chicken,beet,1,0,29,1,70,9.457,7.402,-99,-99,
bullet,walkway,11,1,30,1,70,10.73,9.487,-99,-99,
fan,feature,1,0,31,1,78,8.561,6.856,-99,-99,
mill,feast,12,1,32,1,73,12.011,4.372,-99,-99,
process,joker,10,1,33,1,71,7.84,6.306,-99,-99,
capital,figure,3,0,34,1,85,8.338,6.34,-99,-99,
bacon,feud,3,0,35,1,63,10.02,9.03,-99,-99,
pork,emperor,10,1,36,1,63,8.412,7.278,-99,-99,
grip,beach,12,1,1,2,74,8.596,7.198,-99,-99,
copy,bedroom,3,0,2,2,72,6.971,5.794,-99,-99,
capital,figure,3,0,3,2,86,8.882,5.316,-99,-99,
bleach,ruin,10,1,4,2,74,7.145,6.006,-99,-99,
prison,loaf,3,0,5,2,68,8.608,7.506,-99,-99,
need,faucet,11,1,6,2,80,10.73,9.668,-99,-99,
knock,otter,12,1,7,2,80,6.141,4.431,-99,-99,
chicken,beet,1,0,8,2,95,19.963,9.122,-99,-99,
rock,milk,10,1,9,2,100,10.461,5.759,-99,-99,
smother,surgery,3,0,10,2,81,7.342,5.77,-99,-99,
calf,annoy,2,0,11,2,40,5.708,4.499,-99,-99,
pork,emperor,10,1,12,2,71,10.041,9.03,-99,-99,
find,clown,2,0,13,2,70,5.7,4.702,-99,-99,
port,cinema,2,0,14,2,88,5.442,4.011,-99,-99,
climax,saucer,11,1,15,2,86,12.158,10.579,-99,-99,
mill,feast,12,1,16,2,87,6.338,4.702,-99,-99,
visit,glove,2,0,17,2,62,5.762,4.706,-99,-99,
date,laugh,12,1,18,2,66,6.218,4.436,-99,-99,
remind,foam,2,0,19,2,80,7.224,6.243,-99,-99,
nerve,bumper,11,1,20,2,70,5.498,4.556,-99,-99,
link,crisis,12,1,21,2,77,6.12,4.93,-99,-99,
plant,worm,1,0,22,2,84,6.834,5.588,-99,-99,
replace,roach,11,1,23,2,67,8.754,7.82,-99,-99,
anger,decay,1,0,24,2,72,14.138,10.749,-99,-99,
caring,skirt,1,0,25,2,74,7.859,5.3,-99,-99,
biology,temper,2,0,26,2,43,6.778,4.771,-99,-99,
shrink,mafia,10,1,27,2,82,5.314,4.156,-99,-99,
pea,bathtub,12,1,28,2,85,5.818,4.619,-99,-99,
bullet,walkway,11,1,29,2,84,4.892,3.901,-99,-99,
fan,feature,1,0,30,2,73,5.123,4.278,-99,-99,
bias,sirloin,1,0,31,2,31,8.419,5.845,-99,-99,
fee,chowder,3,0,32,2,69,5.745,4.876,-99,-99,
want,ascent,10,1,33,2,66,9.255,8.331,-99,-99,
bacon,feud,3,0,34,2,81,9.389,7.065,-99,-99,
process,joker,10,1,35,2,89,8.178,6.303,-99,-99,
glue,force,11,1,36,2,85,9.342,3.502,-99,-99,
pea,bathtub,12,1,1,3,79,29.2,27.366,1,-99,
remind,foam,2,0,2,3,80,11.507,3.501,1,10.957,
mill,feast,12,1,3,3,86,8.346,6.223,1,10.759,
smother,surgery,3,0,4,3,80,10.295,7.764,1,1.799,
plant,worm,1,0,5,3,40,7.731,5.008,1,1.917,
port,cinema,2,0,6,3,71,6.584,5.221,1,1.44,
climax,saucer,11,1,7,3,75,12.656,8.683,1,1.509,
shrink,mafia,10,1,8,3,93,6.761,4.667,1,1.119,
fee,chowder,3,0,9,3,70,10.012,4.864,1,1.095,
replace,roach,11,1,10,3,70,7.666,6.364,1,1.228,
fan,feature,1,0,11,3,95,12.233,7.158,1,1.327,
bleach,ruin,10,1,12,3,79,12.534,7.623,1,1.118,
capital,figure,3,0,13,3,85,10.975,4.832,1,9.775,
process,joker,10,1,14,3,90,7.748,4.764,1,4.415,
calf,annoy,2,0,15,3,85,11.774,8.516,1,1.452,
visit,glove,2,0,16,3,71,6.785,5.067,1,1.166,
nerve,bumper,11,1,17,3,86,8.571,4.026,1,1.11,
biology,temper,2,0,18,3,75,9.219,4.598,1,1.375,
find,clown,2,0,19,3,85,9.894,4.504,0,1.016,
chicken,beet,1,0,20,3,75,11.18,9.997,0,23.455,
grip,beach,12,1,21,3,80,6.546,4.419,0,1.894,
bullet,walkway,11,1,22,3,75,7.131,4.949,0,2.543,
date,laugh,12,1,23,3,75,7.779,5.166,0,1.311,
bacon,feud,3,0,24,3,31,6.747,4.6,0,1.215,
bias,sirloin,1,0,25,3,55,6.718,5.191,0,0.702,
prison,loaf,3,0,26,3,76,5.379,3.986,0,0.864,
link,crisis,12,1,27,3,65,7.891,4.759,0,0.791,
need,faucet,11,1,28,3,75,10.599,5.729,0,1.006,
pork,emperor,10,1,29,3,90,5.922,3.036,0,0.982,
glue,force,11,1,30,3,84,7.451,4.352,0,0.952,
knock,otter,12,1,31,3,55,8.713,6.841,0,0.864,
copy,bedroom,3,0,32,3,90,7.875,4.183,0,0.847,
caring,skirt,1,0,33,3,70,10.022,7.002,0,0.999,
rock,milk,10,1,34,3,100,6.824,4.084,0,0.999,
anger,decay,1,0,35,3,60,9.402,6.501,0,1.231,
want,ascent,10,1,36,3,80,8.393,5.432,0,2.071,

