word1,word2,points,value,trial,list,jol,jolrt,jolrtfirst,choice,choicert,
shrink,mafia,10,1,1,1,83,18.318,5.461,-99,-99,
pork,emperor,10,1,2,1,95,7.558,6.499,-99,-99,
calf,annoy,2,0,3,1,66,5.634,3.858,-99,-99,
mill,feast,12,1,4,1,74,7.082,5.723,-99,-99,
fee,chowder,3,0,5,1,88,4.854,3.312,-99,-99,
link,crisis,12,1,6,1,94,5.49,4.242,-99,-99,
need,faucet,11,1,7,1,88,7.401,5.676,-99,-99,
capital,figure,3,0,8,1,79,5.219,4.277,-99,-99,
bleach,ruin,10,1,9,1,82,4.442,3.331,-99,-99,
want,ascent,10,1,10,1,83,5.319,3.769,-99,-99,
bias,sirloin,1,0,11,1,71,6.014,4.713,-99,-99,
nerve,bumper,11,1,12,1,73,5.547,4.523,-99,-99,
bacon,feud,3,0,13,1,82,4.633,3.698,-99,-99,
climax,saucer,11,1,14,1,89,5.715,4.317,-99,-99,
pea,bathtub,12,1,15,1,77,6.987,5.412,-99,-99,
glue,force,11,1,16,1,71,5.154,4.042,-99,-99,
caring,skirt,1,0,17,1,78,5.707,4.804,-99,-99,
chicken,beet,1,0,18,1,73,5.208,4.274,-99,-99,
prison,loaf,3,0,19,1,79,5.336,4.21,-99,-99,
plant,worm,1,0,20,1,86,5.41,4.386,-99,-99,
fan,feature,1,0,21,1,80,5.948,4.397,-99,-99,
knock,otter,12,1,22,1,89,5.612,4.019,-99,-99,
replace,roach,11,1,23,1,85,7.455,3.991,-99,-99,
visit,glove,2,0,24,1,96,5.346,3.786,-99,-99,
anger,decay,1,0,25,1,86,4.636,3.602,-99,-99,
smother,surgery,3,0,26,1,81,6.2,4.89,-99,-99,
process,joker,10,1,27,1,73,5.667,4.588,-99,-99,
find,clown,2,0,28,1,83,4.05,3.115,-99,-99,
remind,foam,2,0,29,1,80,7.692,6.212,-99,-99,
biology,temper,2,0,30,1,88,5.8,4.512,-99,-99,
rock,milk,10,1,31,1,91,4.087,3.087,-99,-99,
copy,bedroom,3,0,32,1,92,5.866,4.845,-99,-99,
port,cinema,2,0,33,1,79,6.339,5.517,-99,-99,
grip,beach,12,1,34,1,90,3.705,2.826,-99,-99,
bullet,walkway,11,1,35,1,91,6.538,5.588,-99,-99,
date,laugh,12,1,36,1,84,4.242,3.259,-99,-99,
process,joker,10,1,1,2,82,6.302,4.071,-99,-99,
caring,skirt,1,0,2,2,91,1.707,0.771,-99,-99,
link,crisis,12,1,3,2,91,1.69,0.875,-99,-99,
fee,chowder,3,0,4,2,68,2.05,1.059,-99,-99,
bleach,ruin,10,1,5,2,74,1.961,0.979,-99,-99,
fan,feature,1,0,6,2,85,2.548,1.218,-99,-99,
copy,bedroom,3,0,7,2,95,2.334,1.049,-99,-99,
bullet,walkway,11,1,8,2,72,2.425,1.313,-99,-99,
shrink,mafia,10,1,9,2,82,3.035,1.533,-99,-99,
rock,milk,10,1,10,2,87,2.99,0.922,-99,-99,
pea,bathtub,12,1,11,2,83,3.125,2.112,-99,-99,
need,faucet,11,1,12,2,75,1.969,0.889,-99,-99,
prison,loaf,3,0,13,2,84,2.544,1.01,-99,-99,
remind,foam,2,0,14,2,80,3.298,1.723,-99,-99,
biology,temper,2,0,15,2,84,13.016,1.642,-99,-99,
mill,feast,12,1,16,2,81,1.762,0.819,-99,-99,
bacon,feud,3,0,17,2,67,3.839,0.906,-99,-99,
find,clown,2,0,18,2,85,3.674,1.178,-99,-99,
anger,decay,1,0,19,2,93,5.602,4.627,-99,-99,
climax,saucer,11,1,20,2,88,3.648,1.613,-99,-99,
pork,emperor,10,1,21,2,78,9.467,7.973,-99,-99,
knock,otter,12,1,22,2,90,12.411,11.393,-99,-99,
replace,roach,11,1,23,2,75,13.72,5.827,-99,-99,
plant,worm,1,0,24,2,90,2.936,1.06,-99,-99,
port,cinema,2,0,25,2,90,4.97,4.01,-99,-99,
date,laugh,12,1,26,2,79,7.611,6.605,-99,-99,
nerve,bumper,11,1,27,2,89,3.544,1.992,-99,-99,
visit,glove,2,0,28,2,85,11.794,10.404,-99,-99,
bias,sirloin,1,0,29,2,85,9.202,8.268,-99,-99,
want,ascent,10,1,30,2,84,8.008,7.21,-99,-99,
smother,surgery,3,0,31,2,87,1.767,0.799,-99,-99,
capital,figure,3,0,32,2,91,1.594,0.756,-99,-99,
glue,force,11,1,33,2,85,1.885,0.99,-99,-99,
calf,annoy,2,0,34,2,69,1.89,0.94,-99,-99,
chicken,beet,1,0,35,2,81,2.626,1.49,-99,-99,
grip,beach,12,1,36,2,79,2.626,1.348,-99,-99,
smother,surgery,3,0,1,3,82,2.111,1.023,1,-99,
replace,roach,11,1,2,3,88,16.879,4.471,0,12.741,
port,cinema,2,0,3,3,83,1.519,0.608,0,10.541,
caring,skirt,1,0,4,3,95,2.183,1.018,0,1.093,
calf,annoy,2,0,5,3,69,5.866,1.443,0,1.786,
grip,beach,12,1,6,3,85,3.993,1,0,1.422,
want,ascent,10,1,7,3,81,4.663,3.657,0,2.333,
plant,worm,1,0,8,3,78,2.473,0.865,0,1.365,
bullet,walkway,11,1,9,3,93,2.298,1.123,0,1.069,
bleach,ruin,10,1,10,3,84,2.746,1.083,1,1.389,
find,clown,2,0,11,3,94,2.634,1.413,1,1.691,
process,joker,10,1,12,3,83,7.122,2.027,1,3.733,
mill,feast,12,1,13,3,84,2.194,0.914,1,3.366,
pork,emperor,10,1,14,3,78,1.922,0.924,1,1.013,
fan,feature,1,0,15,3,84,2.407,1.057,1,1.542,
visit,glove,2,0,16,3,88,1.923,0.991,1,13.852,
remind,foam,2,0,17,3,68,2.207,1.291,0,1.213,
chicken,beet,1,0,18,3,75,4.504,1.409,0,1.527,
pea,bathtub,12,1,19,3,72,2.271,1.064,0,1.441,
bias,sirloin,1,0,20,3,79,6.096,5.083,1,1.005,
copy,bedroom,3,0,21,3,87,2.873,1.53,1,1.853,
nerve,bumper,11,1,22,3,81,2.289,1.011,0,1.484,
fee,chowder,3,0,23,3,87,4.432,1.754,1,1.669,
glue,force,11,1,24,3,86,4.553,3.552,1,11.853,
biology,temper,2,0,25,3,93,9.991,7.961,1,1.188,
link,crisis,12,1,26,3,96,2.88,1.393,1,1.541,
anger,decay,1,0,27,3,86,14.066,13.115,0,1.133,
shrink,mafia,10,1,28,3,65,2.279,1.161,0,1.9,
need,faucet,11,1,29,3,83,2.889,1.457,0,1.67,
climax,saucer,11,1,30,3,87,2.014,1.039,0,1.262,
knock,otter,12,1,31,3,83,2.039,1.073,0,1.173,
rock,milk,10,1,32,3,85,3.065,1.706,0,1.277,
capital,figure,3,0,33,3,93,3.354,1.689,1,1.3,
prison,loaf,3,0,34,3,83,20.447,18.57,1,3.043,
bacon,feud,3,0,35,3,66,2.072,0.97,1,1.244,
date,laugh,12,1,36,3,91,7.976,2.432,1,1.276,

