subn,word1,word2,jol,jolrt,trial,list,practice,jolrank,jolrankp,restudyresp,restudyacc,restudyrtfirst,restudyrt,resp,testacc,rtfirst,rt
1311,shrink,mafia,100,1.661,4,1,0,39,0.975,,NA,NA,NA,mafia,1,11.041,13.844
1311,pea,bathtub,80,2.333,40,1,0,29,0.725,,NA,NA,NA,bathtub,1,4.23,6.997
1311,want,ascent,90,1.465,3,1,0,31,0.775,,NA,NA,NA,ascent,1,4.846,7.134
1311,process,joker,95,1.396,25,1,0,33,0.825,,NA,NA,NA,joker,1,8.385,11.71
1311,forest,knob,74,1.947,10,1,1,22,0.55,tree,0,NA,6.279,knob,1,11.805,14.175
1311,banner,glide,76,1.549,26,1,1,24,0.6,glide,1,NA,13.44,grip,0,14.503,16.447
1311,replace,roach,70,65.579,35,1,0,17,0.425,,NA,NA,NA,roach,1,12.764,15.83
1311,smother,surgery,73,1.771,34,1,0,21,0.525,,NA,NA,NA,egg,0,3.891,5.48
1311,need,faucet,79,1.483,7,1,1,28,0.7,boat,0,NA,5.01,want,0,24.07,25.887
1311,remind,foam,71,1.516,31,1,1,18,0.45,foam,1,NA,23.453,foam,1,8.434,10.632
1311,mill,feast,58,7.612,39,1,1,12,0.3,feast,1,NA,6.36,feast,1,27.68,29.863
1311,pork,emperor,100,1.62,29,1,1,38,0.95,emperor,1,NA,11.429,emperor,1,2.939,9.158
1311,knock,otter,1,1.3,37,1,0,1,0.025,,NA,NA,NA,pen,0,17.222,19.103
1311,biology,temper,18,1.485,19,1,1,4,0.1,temper,1,NA,7.695,temper,1,11.815,14.975
1311,capital,figure,98,1.411,17,1,0,35,0.875,,NA,NA,NA,punishment,0,1.927,5.527
1311,port,cinema,75,1.559,36,1,0,23,0.575,,NA,NA,NA,phone,0,11.112,12.638
1311,plant,worm,66,1.291,16,1,1,16,0.4,worm,1,NA,13.559,worm,1,12.754,15.03
1311,calf,annoy,11,1.5,24,1,0,3,0.075,,NA,NA,NA,annoy,1,11.262,15.395
1311,glue,force,73,3.22,28,1,1,20,0.5,force,1,NA,4.743,force,1,16.555,19.666
1311,link,crisis,54,1.309,33,1,1,10,0.25,sunk,0,NA,20.42,forest,0,3.34,4.67
1311,date,laugh,77,2.895,8,1,0,25,0.625,,NA,NA,NA,palm,0,2.532,3.83
1311,prison,loaf,99,2.388,14,1,0,37,0.925,,NA,NA,NA,knob,0,3.212,6.982
1311,grip,beach,28,1.692,30,1,0,7,0.175,,NA,NA,NA,beach,1,7.831,9.959
1311,visit,glove,53,1.413,23,1,0,9,0.225,,NA,NA,NA,truck,0,3.598,4.911
1311,bleach,ruin,99,6.74,18,1,1,36,0.9,ruin,1,NA,4.157,grip,0,3.521,5.174
1311,collect,loyalty,93,1.601,15,1,1,32,0.8,loyalty,1,NA,14.588,UNKNOWN,0,4.407,16.567
1311,fan,feature,18,1.307,21,1,0,5,0.125,,NA,NA,NA,UNKNOWN,0,1.64,2.047
1311,anger,decay,79,5.641,9,1,0,27,0.675,,NA,NA,NA,hate,0,2.912,3.855
1311,bias,sirloin,59,2.645,12,1,0,13,0.325,,NA,NA,NA,sirloin,1,1.938,3.943
1311,chicken,beet,63,3.939,32,1,0,15,0.375,,NA,NA,NA,prosper,0,2.117,3.71
1311,fee,chowder,85,2.381,2,1,1,30,0.75,chowder,1,NA,5.005,road,0,3.825,5.071
1311,bullet,walkway,78,2.058,27,1,1,26,0.65,walkway,1,NA,10.486,walkway,1,1.116,3.318
1311,risk,zero,100,2.027,20,1,1,40,1,zero,1,NA,4.175,taker,0,1.473,5.055
1311,rock,milk,52,2.048,38,1,1,8,0.2,milk,1,NA,5.907,milk,1,20.975,22.647
1311,nerve,bumper,8,4.85,11,1,1,2,0.05,bumper,1,NA,5.583,ending,0,2.246,3.598
1311,copy,bedroom,22,2.125,22,1,1,6,0.15,faucet,0,NA,32.628,paste,0,2.067,3.215
1311,find,clown,96,4.907,5,1,1,34,0.85,acorn,0,NA,3.856,UNKNOWN,0,2.211,3.038
1311,caring,skirt,72,2.796,6,1,0,19,0.475,,NA,NA,NA,UNKNOWN,0,1.328,1.67
1311,climax,saucer,56,5.616,1,1,0,11,0.275,,NA,NA,NA,saucer,1,1.091,2.431
1311,bacon,feud,59,3.098,13,1,1,14,0.35,love,0,NA,9.012,feud,1,11.45,13.365
1481,link,crisis,52,4.558,39,1,0,21,0.525,,NA,NA,NA,path,0,34.535,36.482
1481,nerve,bumper,61,2.804,15,1,1,24,0.6,bumper,1,NA,9.834,bumper,1,2.519,5.795
1481,chicken,beet,69,2.931,11,1,0,29,0.725,,NA,NA,NA,hope,0,8.369,10.079
1481,glue,force,28,3.256,31,1,1,14,0.35,smudge,0,NA,16.58,situation,0,11.458,14.877
1481,forest,knob,34,4.463,32,1,0,17,0.425,,NA,NA,NA,mole,0,7.611,9.162
1481,knock,otter,24,2.319,3,1,1,12,0.3,box,0,NA,11.039,path,0,4.825,6.77
1481,banner,glide,25,3.114,28,1,0,13,0.325,,NA,NA,NA,horse,0,4.979,7.754
1481,rock,milk,15,3.304,19,1,0,5,0.125,,NA,NA,NA,hop,0,7.401,10.879
1481,biology,temper,34,3.032,26,1,1,18,0.45,fork,0,NA,22.987,show,0,5.215,8.334
1481,prison,loaf,71,6.212,24,1,0,31,0.775,,NA,NA,NA,fence,0,5.445,8.192
1481,bacon,feud,81,4.073,37,1,1,38,0.95,fight,0,NA,8.959,fight,0,1.99,3.933
1481,anger,decay,53,7.447,27,1,1,22,0.55,proud,0,NA,18.291,tray,0,9.652,11.709
1481,pea,bathtub,16,5.179,22,1,1,6,0.15,bathtub,1,NA,13.468,bathtub,1,1.785,6.067
1481,fan,feature,76,2.049,30,1,1,34,0.85,favorite,0,NA,19.793,fantasy,0,3.631,10.381
1481,risk,zero,81,2.907,12,1,0,39,0.975,,NA,NA,NA,shadow,0,13.709,16.188
1481,capital,figure,84,2.687,21,1,1,40,1,statue,0,NA,10.274,statue,0,3.057,6.761
1481,collect,loyalty,64,3.877,20,1,1,26,0.65,mafia,0,NA,19.928,call,0,6.152,9.862
1481,replace,roach,76,3.54,14,1,0,33,0.825,,NA,NA,NA,panda,0,13.563,15.41
1481,smother,surgery,20,2.61,18,1,1,8,0.2,surgery,1,NA,6.685,brother,0,4.372,8.18
1481,remind,foam,67,5.9,29,1,0,27,0.675,,NA,NA,NA,horse,0,10.258,12.447
1481,port,cinema,10,2.029,40,1,0,1,0.025,,NA,NA,NA,way,0,3.981,6
1481,mill,feast,12,2.946,36,1,0,3,0.075,,NA,NA,NA,skip,0,20.949,25.665
1481,bullet,walkway,14,3.862,4,1,1,4,0.1,path,0,NA,12.301,path,0,3.242,4.825
1481,caring,skirt,20,2.543,10,1,1,10,0.25,clown,0,NA,18.975,skip,0,3.17,5.691
1481,find,clown,74,2.438,16,1,1,32,0.8,clown,1,NA,4.221,hair,0,4.839,11.751
1481,visit,glove,33,16.665,9,1,1,16,0.4,beach,0,NA,14.244,twist,0,8.185,10.074
1481,bias,sirloin,68,4.489,34,1,1,28,0.7,hat,0,NA,10.695,news,0,5.764,8.123
1481,grip,beach,18,3.399,23,1,0,7,0.175,,NA,NA,NA,skip,0,11.125,13.75
1481,shrink,mafia,31,3.376,33,1,0,15,0.375,,NA,NA,NA,mafia,1,2.52,5.326
1481,want,ascent,10,3.96,5,1,1,2,0.05,ascent,1,NA,11.538,cash,0,16.191,18.254
1481,calf,annoy,62,3.031,38,1,0,25,0.625,,NA,NA,NA,annoy,1,10.754,12.878
1481,bleach,ruin,78,2.831,1,1,1,36,0.9,ruin,1,NA,7.01,ruin,1,2.462,4.687
1481,process,joker,20,3.95,6,1,0,9,0.225,,NA,NA,NA,beach,0,8.046,10.856
1481,date,laugh,79,2.26,25,1,0,37,0.925,,NA,NA,NA,share,0,11.632,13.466
1481,need,faucet,70,4.297,35,1,1,30,0.75,trap,0,NA,19.2,junk,0,9.006,10.87
1481,pork,emperor,44,5.788,2,1,1,20,0.5,empror,0,NA,5.34,chair,0,2.678,12.018
1481,plant,worm,58,2.541,8,1,0,23,0.575,,NA,NA,NA,skip,0,9.813,11.755
1481,fee,chowder,77,3.497,13,1,0,35,0.875,,NA,NA,NA,leave,0,11.923,15.619
1481,climax,saucer,23,2.887,17,1,0,11,0.275,,NA,NA,NA,skillet,0,15.905,18.428
1481,copy,bedroom,35,2.544,7,1,0,19,0.475,,NA,NA,NA,joke,0,18.391,21.626
1548,glue,force,29,2.947,22,1,1,16,0.4,skip,0,NA,6.753,cement,0,1.932,3.109
1548,caring,skirt,72,2.868,34,1,0,33,0.825,,NA,NA,NA,skip,0,1.913,2.617
1548,shrink,mafia,94,3.872,16,1,1,40,1,skip,0,NA,3.873,skip,0,3.073,3.81
1548,nerve,bumper,27,2.416,2,1,1,12,0.3,bumper,1,NA,3.345,bumper,1,4.698,5.397
1548,process,joker,87,6.779,8,1,0,37,0.925,,NA,NA,NA,skip,0,1.423,2.674
1548,prison,loaf,78,1.758,18,1,0,35,0.875,,NA,NA,NA,skip,0,6.247,7.693
1548,find,clown,34,1.956,39,1,1,18,0.45,skip,0,NA,3.334,collect,0,1.856,2.998
1548,anger,decay,60,5.506,24,1,1,24,0.6,skip,0,NA,3.886,skip,0,5.717,6.559
1548,bleach,ruin,90,1.471,38,1,0,39,0.975,,NA,NA,NA,washer,0,7.597,8.569
1548,bias,sirloin,14,1.29,12,1,1,4,0.1,skip,0,NA,1.883,skip,0,5.567,8.603
1548,grip,beach,6,2.233,7,1,1,2,0.05,skp,0,NA,6.55,skip,0,1.944,2.572
1548,fee,chowder,20,3.568,28,1,0,5,0.125,,NA,NA,NA,skip,0,1.641,2.328
1548,want,ascent,70,1.661,3,1,1,30,0.75,skip,0,NA,2.66,skip,0,21.515,22.184
1548,bullet,walkway,67,2.474,40,1,1,28,0.7,walkway,1,NA,5.264,collect,0,2.113,5.501
1548,fan,feature,28,3.314,15,1,1,14,0.35,feature,1,NA,2.593,feature,1,1.776,2.583
1548,pea,bathtub,28,1.845,20,1,0,15,0.375,,NA,NA,NA,skip,0,1.4,2.044
1548,climax,saucer,69,1.583,21,1,0,29,0.725,,NA,NA,NA,skip,0,1.344,1.962
1548,visit,glove,71,1.896,35,1,1,32,0.8,skip,0,NA,2.077,skip,0,1.28,1.973
1548,pork,emperor,25,1.42,14,1,0,11,0.275,,NA,NA,NA,belly,0,2.505,3.332
1548,need,faucet,35,1.362,10,1,0,19,0.475,,NA,NA,NA,skip,0,1.252,1.891
1548,collect,loyalty,39,1.263,29,1,1,20,0.5,skip,0,NA,2.569,rubber,0,1.851,2.756
1548,bacon,feud,20,1.709,30,1,1,6,0.15,feud,1,NA,4.76,skip,0,1.865,2.516
1548,smother,surgery,21,3.176,19,1,0,7,0.175,,NA,NA,NA,skip,0,2.56,3.285
1548,copy,bedroom,51,2.598,23,1,0,21,0.525,,NA,NA,NA,skip,0,18.424,19.17
1548,mill,feast,24,2.03,11,1,1,10,0.25,rubber,0,NA,3.834,skip,0,8.355,8.981
1548,date,laugh,88,1.548,1,1,1,38,0.95,laugh,1,NA,3.723,skip,0,4.631,5.244
1548,banner,glide,27,1.409,4,1,0,13,0.325,,NA,NA,NA,flag,0,3.827,4.492
1548,capital,figure,4,1.393,33,1,0,1,0.025,,NA,NA,NA,skip,0,1.236,1.809
1548,knock,otter,32,1.743,5,1,0,17,0.425,,NA,NA,NA,skip,0,1.836,2.483
1548,rock,milk,85,9.053,13,1,1,36,0.9,milk,1,NA,2.261,skip,0,49.711,50.381
1548,port,cinema,56,2.008,17,1,1,22,0.55,cinema,1,NA,7.184,skip,0,6.182,6.799
1548,replace,roach,72,2.262,9,1,1,34,0.85,skip,0,NA,3.653,skip,0,1.061,1.653
1548,plant,worm,59,1.818,6,1,0,23,0.575,,NA,NA,NA,skip,0,1.453,2.047
1548,chicken,beet,61,1.454,37,1,0,25,0.625,,NA,NA,NA,skip,0,2.021,2.725
1548,risk,zero,10,2.105,27,1,0,3,0.075,,NA,NA,NA,skip,0,1.184,1.84
1548,biology,temper,21,1.914,36,1,1,8,0.2,skip,0,NA,2.887,skip,0,1.302,2.013
1548,forest,knob,63,1.609,31,1,1,26,0.65,skip,0,NA,2.508,skip,0,1.345,1.947
1548,remind,foam,23,3.05,26,1,0,9,0.225,,NA,NA,NA,skip,0,1.199,1.861
1548,calf,annoy,67,2.432,32,1,0,27,0.675,,NA,NA,NA,skip,0,24.818,25.418
1548,link,crisis,70,1.329,25,1,0,31,0.775,,NA,NA,NA,skip,0,1.264,1.981
1726,anger,decay,40,22.222,1,1,0,13,0.325,,NA,NA,NA,saucer,0,6.21,7.942
1726,forest,knob,30,8.655,9,1,1,4,0.1,knob,1,NA,3.307,knob,1,1.522,2.993
1726,smother,surgery,75,36.436,13,1,1,36,0.9,skip,0,NA,51.354,skip,0,41.807,43.606
1726,knock,otter,45,11.807,24,1,1,20,0.5,otter,1,NA,8.898,otter,1,3.868,5.893
1726,pork,emperor,45,5.185,11,1,1,14,0.35,emperor,1,NA,7.726,emperor,1,1.212,4.429
1726,fee,chowder,30,8.28,37,1,1,6,0.15,skip,0,NA,55.134,skip,0,12.545,14.582
1726,rock,milk,80,10.221,3,1,0,37,0.925,,NA,NA,NA,cereal,0,22.875,24.91
1726,grip,beach,70,17.594,12,1,0,33,0.825,,NA,NA,NA,beach,1,3.027,33.766
1726,bullet,walkway,30,13.057,22,1,0,7,0.175,,NA,NA,NA,skip,0,29.082,31.097
1726,capital,figure,40,9.826,6,1,1,12,0.3,skip,0,NA,47.613,skip,0,23.258,24.889
1726,prison,loaf,80,8.947,8,1,1,38,0.95,skip,0,NA,49.47,skip,0,10.01,14.501
1726,bias,sirloin,60,11.066,32,1,0,25,0.625,,NA,NA,NA,faucet,0,15.965,19.589
1726,shrink,mafia,65,13.273,33,1,1,32,0.8,skip,0,NA,65.939,skip,0,4.036,29.926
1726,bleach,ruin,90,10.122,16,1,1,40,1,ruin,1,NA,6.643,ruined,0,6.449,8.958
1726,chicken,beet,65,12.852,18,1,0,31,0.775,,NA,NA,NA,beets,0,7.914,10.479
1726,find,clown,70,10.125,19,1,1,34,0.85,skip,0,NA,49.809,skip,0,16.602,18.393
1726,nerve,bumper,20,26.352,34,1,0,1,0.025,,NA,NA,NA,skip,0,22.514,23.988
1726,replace,roach,65,13.734,25,1,0,27,0.675,,NA,NA,NA,roach,1,2.381,58.4
1726,risk,zero,35,7.351,4,1,1,10,0.25,skip,0,NA,18.796,skip,0,5.187,16.543
1726,mill,feast,65,6.241,23,1,1,26,0.65,feast,1,NA,3.146,feast,1,1.939,3.278
1726,date,laugh,65,16.903,35,1,1,28,0.7,laugh,1,NA,8.094,laugh,1,1.845,3.643
1726,pea,bathtub,60,12.654,40,1,1,24,0.6,bathtub,1,NA,4.635,bathtub,1,2.643,4.611
1726,banner,glide,35,14.26,15,1,0,11,0.275,,NA,NA,NA,skip,0,31.088,32.506
1726,visit,glove,45,22.376,20,1,0,17,0.425,,NA,NA,NA,skip,0,21.038,22.602
1726,fan,feature,60,7.778,10,1,0,23,0.575,,NA,NA,NA,feature,1,1.147,3.568
1726,link,crisis,45,27.704,17,1,1,16,0.4,crisis,1,NA,6.368,crisis,1,2.843,5.012
1726,calf,annoy,75,10.104,26,1,0,35,0.875,,NA,NA,NA,annoyed,0,1.295,3.867
1726,need,faucet,35,13.697,7,1,0,9,0.225,,NA,NA,NA,skip,0,14.582,17.28
1726,port,cinema,45,9.77,36,1,1,18,0.45,cinema,1,NA,4.198,cinema,1,1.378,3.208
1726,plant,worm,85,18.81,31,1,0,39,0.975,,NA,NA,NA,worms,0,3.682,7.266
1726,remind,foam,45,13.251,28,1,0,15,0.375,,NA,NA,NA,foam,1,5.096,8.818
1726,bacon,feud,45,8.26,27,1,0,19,0.475,,NA,NA,NA,skip,0,21.981,23.619
1726,biology,temper,25,47.986,2,1,0,3,0.075,,NA,NA,NA,skip,0,29.195,30.771
1726,collect,loyalty,30,16.644,21,1,1,8,0.2,skip,0,NA,32.223,skip,0,26.945,28.866
1726,climax,saucer,55,9.145,30,1,1,22,0.55,saucer,1,NA,12.533,skip,0,25.174,27.17
1726,copy,bedroom,65,16.583,39,1,1,30,0.75,house,0,NA,9.595,house,0,1.924,4.405
1726,process,joker,30,13.989,5,1,0,5,0.125,,NA,NA,NA,skip,0,4.709,11.839
1726,want,ascent,20,9.141,29,1,1,2,0.05,skip,0,NA,48.099,skip,0,17.893,19.092
1726,caring,skirt,55,23.649,14,1,0,21,0.525,,NA,NA,NA,skip,0,8.92,13.495
1726,glue,force,65,19.456,38,1,0,29,0.725,,NA,NA,NA,skip,0,7.361,17.278
1768,plant,worm,15,12.518,25,1,0,33,0.825,,NA,NA,NA,worm,1,19.581,22.113
1768,visit,glove,5,11.795,40,1,1,4,0.1,run,0,NA,16.771,mitten,0,12.107,15.92
1768,fan,feature,10,9.976,21,1,1,16,0.4,blade,0,NA,22.93,blade,0,12.094,13.928
1768,calf,annoy,5,11.115,3,1,0,7,0.175,,NA,NA,NA,annoy,1,7.849,12.886
1768,smother,surgery,15,13.327,23,1,0,31,0.775,,NA,NA,NA,surgeon,0,16.004,18.706
1768,nerve,bumper,5,8.02,39,1,1,12,0.3,bumper,1,NA,11.727,end,0,9.98,11.458
1768,prison,loaf,20,19.676,14,1,0,37,0.925,,NA,NA,NA,bread,0,12.89,14.87
1768,biology,temper,20,10.23,35,1,1,36,0.9,anger,0,NA,25.972,temper,1,25.812,28.038
1768,port,cinema,5,16.269,38,1,0,1,0.025,,NA,NA,NA,cinema,1,19.462,21.837
1768,chicken,beet,10,4.708,15,1,0,23,0.575,,NA,NA,NA,beak,0,22.162,23.969
1768,copy,bedroom,10,12.956,9,1,1,18,0.45,bedroom,1,NA,11.066,sleep,0,14.486,16.427
1768,bias,sirloin,20,9.585,18,1,0,35,0.875,,NA,NA,NA,sirloin,1,6.851,9.872
1768,date,laugh,20,17.355,31,1,1,34,0.85,laugh,1,NA,5.204,laugh,1,4.312,6.292
1768,glue,force,10,9.601,20,1,0,25,0.625,,NA,NA,NA,force,1,11.358,13.326
1768,forest,knob,5,4.706,33,1,0,11,0.275,,NA,NA,NA,tree,0,33.164,34.874
1768,pork,emperor,30,21.359,36,1,0,39,0.975,,NA,NA,NA,emperor,1,2.231,4.555
1768,collect,loyalty,10,10.045,16,1,0,21,0.525,,NA,NA,NA,trust,0,11.418,13.308
1768,climax,saucer,15,10.086,12,1,1,32,0.8,saucer,1,NA,6.718,saucer,1,6.995,9.558
1768,bleach,ruin,30,12.172,34,1,1,40,1,ruin,1,NA,10.497,ruined,0,8.251,10.679
1768,grip,beach,10,12.66,4,1,0,17,0.425,,NA,NA,NA,hand,0,5.889,7.593
1768,find,clown,20,17.131,17,1,1,38,0.95,clown,1,NA,5.631,peace,0,20.225,22.113
1768,bullet,walkway,7,10.562,28,1,0,13,0.325,,NA,NA,NA,path,0,21.392,23.035
1768,link,crisis,10,8.93,11,1,1,20,0.5,problem,0,NA,12.461,chain,0,13.114,14.822
1768,replace,roach,5,14.253,6,1,1,6,0.15,rock,0,NA,11.721,reward,0,10.965,13.52
1768,bacon,feud,7,12.476,32,1,1,14,0.35,emperor,0,NA,13.821,fight,0,5.998,7.743
1768,need,faucet,5,11.723,27,1,0,9,0.225,,NA,NA,NA,water,0,11.511,13.356
1768,anger,decay,15,7.375,2,1,0,29,0.725,,NA,NA,NA,yell,0,10.489,12.05
1768,rock,milk,10,12.456,13,1,0,27,0.675,,NA,NA,NA,milk,1,33.417,34.961
1768,caring,skirt,10,8.816,37,1,1,22,0.55,leg,0,NA,16.351,woman,0,13.432,14.965
1768,capital,figure,10,9.298,8,1,1,26,0.65,figure,1,NA,6.082,figure,1,7.12,9.473
1768,banner,glide,10,28.757,24,1,0,15,0.375,,NA,NA,NA,kite,0,10.11,11.813
1768,knock,otter,5,8.206,26,1,1,2,0.05,seal,0,NA,21.755,down,0,8.705,10.328
1768,risk,zero,12,6.438,7,1,1,28,0.7,zero,1,NA,6.071,zero,1,11.026,12.715
1768,fee,chowder,5,6.56,29,1,0,5,0.125,,NA,NA,NA,charge,0,13.058,14.949
1768,want,ascent,5,11.403,5,1,1,10,0.25,saucer,0,NA,29.853,fly,0,7.64,9.378
1768,mill,feast,5,8.844,10,1,1,8,0.2,feast,1,NA,12.791,food,0,11.422,13.671
1768,remind,foam,5,8.81,22,1,0,3,0.075,,NA,NA,NA,foam,1,11.306,12.642
1768,process,joker,10,7.447,1,1,1,24,0.6,no,0,NA,25.532,plant,0,12.577,14.833
1768,shrink,mafia,15,12.194,30,1,1,30,0.75,mafia,1,NA,6.633,mafia,1,9.43,11.145
1768,pea,bathtub,10,11.725,19,1,0,19,0.475,,NA,NA,NA,princess,0,3.331,5.97
2070,anger,decay,62,1.512,27,1,1,36,0.9,seethe,0,NA,6.594,fear,0,1.473,2.026
2070,caring,skirt,19,9.208,6,1,0,13,0.325,,NA,NA,NA,dare,0,2.452,3.07
2070,pork,emperor,22,1.224,14,1,0,21,0.525,,NA,NA,NA,beef,0,1.174,1.818
2070,remind,foam,15,1.155,15,1,0,7,0.175,,NA,NA,NA,later,0,1.355,2.009
2070,knock,otter,13,1.788,33,1,0,3,0.075,,NA,NA,NA,knob,0,1.335,3.884
2070,risk,zero,68,1.177,18,1,0,39,0.975,,NA,NA,NA,knob,0,1.276,2.581
2070,rock,milk,5,24.597,16,1,0,1,0.025,,NA,NA,NA,shred,0,2.238,2.913
2070,fee,chowder,19,1.315,22,1,1,12,0.3,feature,0,NA,4.324,loyal,0,1.619,2.649
2070,bleach,ruin,15,2.868,3,1,0,5,0.125,,NA,NA,NA,destroy,0,2.28,5.988
2070,copy,bedroom,15,2.53,31,1,1,6,0.15,repeat,0,NA,2.361,place,0,1.697,2.566
2070,capital,figure,33,6.099,40,1,0,31,0.775,,NA,NA,NA,base,0,13.201,15.102
2070,find,clown,16,14.607,36,1,0,9,0.225,,NA,NA,NA,place,0,2.313,3.122
2070,process,joker,35,5.383,28,1,0,33,0.825,,NA,NA,NA,copy,0,1.182,1.949
2070,glue,force,60,2.599,39,1,0,35,0.875,,NA,NA,NA,sense,0,2.272,3.175
2070,need,faucet,19,14.708,20,1,1,14,0.35,desire,0,NA,1.972,desire,0,8.345,9.135
2070,visit,glove,26,1.572,10,1,0,25,0.625,,NA,NA,NA,place,0,1.029,1.739
2070,fan,feature,27,18.966,19,1,1,28,0.7,feature,1,NA,1.915,feature,1,0.797,1.603
2070,bias,sirloin,10,2.139,8,1,1,2,0.05,scheme,0,NA,3.92,blame,0,1.296,3.983
2070,pea,bathtub,22,1.312,21,1,0,19,0.475,,NA,NA,NA,pod,0,7.256,8.196
2070,date,laugh,63,11.573,23,1,0,37,0.925,,NA,NA,NA,place,0,1.259,2.082
2070,grip,beach,25,2.943,7,1,1,22,0.55,trip,0,NA,7.134,wrench,0,1.391,2.362
2070,want,ascent,17,9.084,17,1,1,10,0.25,desire,0,NA,2.233,desire,0,1.059,1.833
2070,plant,worm,63,2.497,9,1,1,38,0.95,feast,0,NA,3.941,porch,0,1.3,2.729
2070,bullet,walkway,26,1.35,34,1,0,27,0.675,,NA,NA,NA,stray,0,1.146,2.025
2070,climax,saucer,28,19.139,26,1,0,29,0.725,,NA,NA,NA,clean,0,1.032,1.892
2070,chicken,beet,20,8.48,5,1,0,17,0.425,,NA,NA,NA,feature,0,1.25,2.313
2070,mill,feast,25,1.23,35,1,0,23,0.575,,NA,NA,NA,grind,0,1.896,3.151
2070,prison,loaf,51,1.095,38,1,1,34,0.85,loaf,1,NA,2.448,loaf,1,4.294,4.973
2070,link,crisis,14,1.843,24,1,1,4,0.1,lesson,0,NA,2.289,lean,0,1.077,1.758
2070,nerve,bumper,18,1.493,12,1,0,11,0.275,,NA,NA,NA,value,0,1.448,2.433
2070,biology,temper,30,2.447,32,1,1,30,0.75,zero,0,NA,2.717,bed,0,2.073,2.786
2070,port,cinema,20,9.679,2,1,1,18,0.45,tree,0,NA,3.834,place,0,1.867,2.76
2070,bacon,feud,19,1.35,37,1,1,16,0.4,feast,0,NA,18.125,leaf,0,3.902,4.527
2070,collect,loyalty,26,1.519,4,1,1,26,0.65,loyalty,1,NA,4.088,clean,0,2.839,3.784
2070,replace,roach,26,1.207,13,1,1,24,0.6,fiend,0,NA,2.496,renew,0,0.998,4.404
2070,calf,annoy,19,1.594,11,1,0,15,0.375,,NA,NA,NA,clean,0,1.584,2.57
2070,smother,surgery,15,2.949,25,1,1,8,0.2,surgery,1,NA,4.437,exposure,0,4.83,5.967
2070,shrink,mafia,22,7.183,29,1,1,20,0.5,replace,0,NA,3.348,shred,0,9.172,9.873
2070,banner,glide,78,6.839,30,1,1,40,1,unfurl,0,NA,5.203,unfurl,0,1.3,2.416
2070,forest,knob,33,1.31,1,1,1,32,0.8,knob,1,NA,3.264,fly,0,1.428,3.423
2117,bacon,feud,34,4.881,20,1,0,17,0.425,,NA,NA,NA,feud,1,26.188,27.692
2117,mill,feast,39,3.311,26,1,0,25,0.625,,NA,NA,NA,eat,0,27.966,28.926
2117,link,crisis,66,3.89,30,1,1,34,0.85,crisis,1,NA,6.482,crisis,1,12.818,21.536
2117,biology,temper,31,4.652,18,1,1,10,0.25,temper,1,NA,6.582,temper,1,11.328,12.223
2117,smother,surgery,34,4.002,32,1,1,16,0.4,surgery,1,NA,5.878,surgery,1,3.267,4.24
2117,chicken,beet,29,2.936,28,1,1,8,0.2,beet,1,NA,5.74,beet,1,4.048,5.087
2117,prison,loaf,27,4.587,24,1,1,6,0.15,loaf,1,NA,12.846,loaf,1,2.032,2.703
2117,find,clown,42,4.458,36,1,1,28,0.7,clown,1,NA,6.598,cow,0,7.841,8.751
2117,risk,zero,78,4.584,17,1,0,37,0.925,,NA,NA,NA,zero,1,8.945,9.728
2117,remind,foam,30,4.679,6,1,0,9,0.225,,NA,NA,NA,foam,1,4.336,5.888
2117,process,joker,32,4.869,33,1,1,12,0.3,poker,0,NA,5.887,joker,1,5.281,6.174
2117,bias,sirloin,29,4.186,21,1,0,7,0.175,,NA,NA,NA,steak,0,15.343,16.111
2117,visit,glove,62,10.429,31,1,0,31,0.775,,NA,NA,NA,glove,1,10.146,10.895
2117,port,cinema,33,3.818,5,1,1,14,0.35,cinema,1,NA,6.73,cinema,1,8.48,10.174
2117,replace,roach,72,6.32,23,1,1,36,0.9,roach,1,NA,33.179,roach,1,4.111,4.895
2117,anger,decay,64,5.596,14,1,0,33,0.825,,NA,NA,NA,decay,1,7.28,8.543
2117,plant,worm,82,3.642,3,1,0,39,0.975,,NA,NA,NA,worm,1,1.68,6.672
2117,shrink,mafia,33,3.64,29,1,0,15,0.375,,NA,NA,NA,mafia,1,7.746,8.848
2117,copy,bedroom,40,4.921,34,1,1,26,0.65,bedroom,1,NA,6.896,bedroom,1,8.93,10.303
2117,grip,beach,36,3.024,38,1,1,20,0.5,beach,1,NA,14.55,bleach,0,4.448,11.391
2117,bleach,ruin,36,2.843,35,1,0,21,0.525,,NA,NA,NA,ruin,1,7.856,10.367
2117,glue,force,63,3.73,25,1,1,32,0.8,force,1,NA,3.343,force,1,1.823,2.91
2117,pea,bathtub,40,6.167,19,1,0,27,0.675,,NA,NA,NA,bathtub,1,5.553,7.536
2117,climax,saucer,12,5.53,27,1,0,1,0.025,,NA,NA,NA,saucer,1,1.232,2.336
2117,capital,figure,24,6.934,9,1,0,3,0.075,,NA,NA,NA,figure,1,3.215,4.094
2117,collect,loyalty,37,4.036,39,1,1,22,0.55,loyal,0,NA,11.839,loyal,0,7.058,7.983
2117,date,laugh,71,7.062,37,1,0,35,0.875,,NA,NA,NA,laugh,1,8.432,9.775
2117,nerve,bumper,26,7.25,12,1,0,5,0.125,,NA,NA,NA,bump,0,8.656,9.521
2117,want,ascent,36,3.369,2,1,0,19,0.475,,NA,NA,NA,ascend,0,2.397,5.998
2117,pork,emperor,81,5.873,10,1,1,38,0.95,emperor,1,NA,9.495,emperor,1,13.441,14.863
2117,forest,knob,22,4.684,15,1,1,2,0.05,knob,1,NA,13.875,knob,1,6.528,7.344
2117,fee,chowder,32,6.427,4,1,0,11,0.275,,NA,NA,NA,chowder,1,2.193,3.711
2117,fan,feature,37,11.018,40,1,1,24,0.6,feature,1,NA,5.934,feature,1,2.8,4.56
2117,calf,annoy,32,2.845,1,1,0,13,0.325,,NA,NA,NA,annoy,1,2.768,3.631
2117,caring,skirt,37,5.628,22,1,0,23,0.575,,NA,NA,NA,skirt,1,2.273,3.871
2117,banner,glide,56,6.224,11,1,1,30,0.75,slide,0,NA,17.423,sign,0,9.793,10.799
2117,need,faucet,96,5.549,8,1,1,40,1,faucet,1,NA,6.655,faucet,1,6.031,8.319
2117,knock,otter,25,4.917,16,1,1,4,0.1,open,0,NA,22.64,wood,0,13.233,14.35
2117,bullet,walkway,36,4.379,7,1,1,18,0.45,walkway,1,NA,3.413,walkway,1,1.648,3.215
2117,rock,milk,43,4.7,13,1,0,29,0.725,,NA,NA,NA,sand,0,11.521,14.463
2264,climax,saucer,53,0.767,7,1,1,12,0.3,pork,0,NA,4.75,skip,0,8.766,9.499
2264,calf,annoy,53,2.413,29,1,0,31,0.775,,NA,NA,NA,skip,0,5.04,5.743
2264,bacon,feud,57,0.734,26,1,1,40,1,skip,0,NA,4.686,night,0,5.526,6.479
2264,caring,skirt,53,0.734,28,1,1,22,0.55,loaf,0,NA,13.16,shrewd,0,2.87,4.654
2264,remind,foam,53,0.79,10,1,0,3,0.075,,NA,NA,NA,timer,0,2.04,3.106
2264,plant,worm,53,0.886,36,1,0,11,0.275,,NA,NA,NA,skip,0,2.67,3.404
2264,banner,glide,53,1.076,34,1,0,21,0.525,,NA,NA,NA,skip,0,1.656,3.759
2264,fee,chowder,53,0.822,15,1,1,28,0.7,show,0,NA,2.489,skip,0,1.441,2.039
2264,capital,figure,53,0.982,17,1,0,9,0.225,,NA,NA,NA,gain,0,3.837,4.439
2264,glue,force,53,0.981,39,1,0,17,0.425,,NA,NA,NA,paste,0,1.977,2.896
2264,rock,milk,53,1.27,21,1,1,6,0.15,hand,0,NA,6.807,steel,0,1.344,2.208
2264,pork,emperor,51,3.119,27,1,1,2,0.05,emperor,1,NA,5.222,meditation,0,15.952,18.055
2264,copy,bedroom,57,1.238,40,1,1,38,0.95,skip,0,NA,7.02,paste,0,1.976,2.712
2264,link,crisis,53,1.012,18,1,0,13,0.325,,NA,NA,NA,skip,0,1.306,1.827
2264,pea,bathtub,53,2.55,22,1,1,32,0.8,stout,0,NA,2.935,skip,0,1.388,1.834
2264,smother,surgery,57,0.822,35,1,0,39,0.975,,NA,NA,NA,skip,0,1.024,1.631
2264,biology,temper,55,1.614,3,1,1,36,0.9,measure,0,NA,7.016,skip,0,1.305,1.72
2264,bullet,walkway,53,1.271,5,1,0,25,0.625,,NA,NA,NA,ride,0,3.098,5.902
2264,find,clown,53,1.11,1,1,1,26,0.65,chowder,0,NA,5.454,seek,0,1.017,3.408
2264,mill,feast,54,1.335,14,1,1,34,0.85,feast,1,NA,2.168,feast,1,1.79,3.189
2264,date,laugh,53,0.916,16,1,0,23,0.575,,NA,NA,NA,apricot,0,2.52,4.47
2264,bleach,ruin,53,0.823,37,1,0,5,0.125,,NA,NA,NA,skip,0,1.593,2.038
2264,prison,loaf,53,0.794,9,1,0,27,0.675,,NA,NA,NA,loaf,1,4.579,5.711
2264,bias,sirloin,53,0.95,2,1,1,14,0.35,skip,0,NA,5.799,skip,0,1.817,2.263
2264,shrink,mafia,53,1.216,38,1,0,19,0.475,,NA,NA,NA,skip,0,1.467,1.979
2264,port,cinema,55,1.812,20,1,0,37,0.925,,NA,NA,NA,urine,0,5.774,7.009
2264,forest,knob,53,1.526,33,1,1,20,0.5,red,0,NA,2.518,skip,0,3.737,4.183
2264,chicken,beet,53,1.142,13,1,1,24,0.6,ladel,0,NA,6.582,skip,0,0.921,1.303
2264,want,ascent,53,1.878,4,1,1,4,0.1,need,0,NA,2.488,skip,0,0.898,1.312
2264,risk,zero,53,1.086,32,1,1,16,0.4,reward,0,NA,2.455,skip,0,3.97,4.367
2264,nerve,bumper,53,5.764,25,1,0,33,0.825,,NA,NA,NA,skip,0,1.09,1.654
2264,replace,roach,53,1.461,31,1,1,18,0.45,fish,0,NA,4.174,skip,0,3.097,3.447
2264,collect,loyalty,53,1.495,11,1,1,10,0.25,skip,0,NA,9.491,turn,0,3.644,4.528
2264,need,faucet,53,0.95,19,1,0,15,0.375,,NA,NA,NA,skip,0,1.889,2.422
2264,anger,decay,50,6.859,8,1,0,1,0.025,,NA,NA,NA,skip,0,3.898,4.314
2264,grip,beach,53,0.861,12,1,0,7,0.175,,NA,NA,NA,skip,0,1.144,1.623
2264,fan,feature,53,0.734,24,1,0,29,0.725,,NA,NA,NA,skip,0,1.153,1.525
2264,visit,glove,54,2.572,30,1,0,35,0.875,,NA,NA,NA,skip,0,1.249,1.662
2264,knock,otter,53,0.79,6,1,1,30,0.75,door,0,NA,2.711,skip,0,1.435,1.847
2264,process,joker,53,1.077,23,1,1,8,0.2,joker,1,NA,3.278,lasso,0,4.432,6.254
2790,banner,glide,54,8.126,2,1,1,16,0.4,glide,1,NA,13.605,glide,1,5.189,6.368
2790,bleach,ruin,58,8.62,3,1,1,32,0.8,ruin,1,NA,6.775,ruin,1,5.978,7.529
2790,find,clown,41,7.869,10,1,1,2,0.05,clown,1,NA,4.739,clown,1,3.44,4.536
2790,replace,roach,52,8.637,18,1,0,15,0.375,,NA,NA,NA,skip,0,17.396,18.526
2790,nerve,bumper,52,9.34,34,1,1,14,0.35,bumper,1,NA,8.31,skip,0,9.5,10.546
2790,mill,feast,57,7.499,27,1,1,28,0.7,feast,1,NA,5.118,feast,1,3.362,4.864
2790,copy,bedroom,60,6.741,20,1,1,36,0.9,bedroom,1,NA,8.333,skip,0,9.976,11.077
2790,bullet,walkway,58,11.607,30,1,0,33,0.825,,NA,NA,NA,walkaway,0,6.684,8.901
2790,fee,chowder,56,6.524,25,1,0,23,0.575,,NA,NA,NA,skip,0,12.258,13.385
2790,bacon,feud,57,8.944,32,1,0,31,0.775,,NA,NA,NA,feud,1,9.308,10.266
2790,capital,figure,44,10.808,5,1,1,8,0.2,figure,1,NA,9.563,woman,0,1.809,12.813
2790,grip,beach,56,7.195,8,1,0,25,0.625,,NA,NA,NA,bikini,0,8.555,10.044
2790,process,joker,55,10.982,4,1,1,20,0.5,joker,1,NA,5.985,joke,0,8.778,10.418
2790,chicken,beet,50,14.36,33,1,0,13,0.325,,NA,NA,NA,vegetable,0,8.418,10.503
2790,climax,saucer,57,8.049,38,1,1,30,0.75,saucer,1,NA,3.999,saucer,1,4.163,5.537
2790,rock,milk,58,6.941,17,1,1,34,0.85,milk,1,NA,7.579,milk,1,7.039,8.071
2790,fan,feature,70,7.09,1,1,0,39,0.975,,NA,NA,NA,funny,0,17.894,19.452
2790,remind,foam,56,13.333,15,1,0,21,0.525,,NA,NA,NA,skip,0,11.591,12.652
2790,risk,zero,100,6.261,16,1,1,40,1,zero,1,NA,3.09,zero,1,1.294,2.584
2790,forest,knob,55,6.455,36,1,0,17,0.425,,NA,NA,NA,skip,0,11.772,12.95
2790,port,cinema,56,6.068,23,1,1,24,0.6,cinema,1,NA,4.561,skip,0,8.535,9.784
2790,link,crisis,42,7.884,39,1,0,3,0.075,,NA,NA,NA,crisis,1,6.6,7.865
2790,glue,force,57,7.94,31,1,0,29,0.725,,NA,NA,NA,fracture,0,7.698,9.402
2790,pork,emperor,43,14.407,29,1,0,7,0.175,,NA,NA,NA,skip,0,7.683,8.766
2790,bias,sirloin,45,10.051,9,1,0,11,0.275,,NA,NA,NA,steak,0,4.306,5.629
2790,biology,temper,45,21.451,22,1,1,10,0.25,temper,1,NA,7.277,temper,1,3.393,4.583
2790,anger,decay,57,6.246,28,1,0,27,0.675,,NA,NA,NA,delay,0,15.215,16.312
2790,need,faucet,55,8.783,6,1,0,19,0.475,,NA,NA,NA,skip,0,2.098,3.336
2790,pea,bathtub,55,27.816,19,1,1,18,0.45,bathtub,1,NA,10.061,skip,0,2.222,3.34
2790,prison,loaf,56,6.927,35,1,1,26,0.65,loaf,1,NA,6.998,loaf,1,8.549,9.543
2790,collect,loyalty,43,8.589,7,1,1,4,0.1,loyalty,1,NA,10.656,admire,0,6.958,8.41
2790,knock,otter,56,6.425,24,1,1,22,0.55,otter,1,NA,4.485,seal,0,12.309,13.541
2790,shrink,mafia,59,7.531,14,1,0,35,0.875,,NA,NA,NA,mafia,1,6.499,8.785
2790,date,laugh,44,9.865,21,1,0,9,0.225,,NA,NA,NA,laugh,1,7.856,8.915
2790,calf,annoy,39,6.972,11,1,0,1,0.025,,NA,NA,NA,boat,0,14.359,15.482
2790,smother,surgery,46,9.942,13,1,1,12,0.3,surgery,1,NA,10.293,skip,0,2.139,3.282
2790,want,ascent,63,8.156,26,1,0,37,0.925,,NA,NA,NA,skip,0,9.199,10.2
2790,visit,glove,43,6.773,40,1,0,5,0.125,,NA,NA,NA,hand,0,12.956,13.803
2790,caring,skirt,43,9.3,37,1,1,6,0.15,skirt,1,NA,9.571,skip,0,4.924,5.937
2790,plant,worm,66,7.83,12,1,1,38,0.95,worm,1,NA,8.824,skip,0,4.304,5.462
2962,biology,temper,79,5.45,15,1,0,25,0.625,,NA,NA,NA,no,0,32.27,34.615
2962,caring,skirt,80,10.571,14,1,0,27,0.675,,NA,NA,NA,no,0,25.612,30.464
2962,rock,milk,59,8.992,5,1,1,12,0.3,no,0,NA,9.406,milk,1,30.03,33.358
2962,bias,sirloin,62,12.845,20,1,0,13,0.325,,NA,NA,NA,black,0,14.591,18.562
2962,port,cinema,57,4.56,16,1,0,9,0.225,,NA,NA,NA,blue,0,28.416,32.664
2962,glue,force,30,8.453,9,1,0,3,0.075,,NA,NA,NA,land,0,34.702,38.198
2962,plant,worm,100,8.583,22,1,1,40,1,no,0,NA,4.117,worm,1,36.14,37.325
2962,bacon,feud,83,8.113,13,1,1,30,0.75,no,0,NA,3.909,smile,0,49.659,56.021
2962,link,crisis,58,12.627,39,1,1,10,0.25,link,0,NA,4.81,military,0,20.517,26.475
2962,smother,surgery,78,12.025,23,1,1,22,0.55,no,0,NA,5.407,female,0,20.833,23.893
2962,fan,feature,71,8.932,30,1,0,19,0.475,,NA,NA,NA,read,0,6.174,12.103
2962,bullet,walkway,84,8.339,21,1,1,32,0.8,no,0,NA,4.343,bananna,0,12.244,19.114
2962,copy,bedroom,69,9.196,26,1,1,18,0.45,copy,0,NA,6.876,nose,0,7.104,9.366
2962,fee,chowder,15,6.549,7,1,0,1,0.025,,NA,NA,NA,party,0,9.421,12.592
2962,find,clown,79,10.988,12,1,1,26,0.65,no,0,NA,4.777,land,0,21.742,24.482
2962,visit,glove,63,3.433,40,1,0,15,0.375,,NA,NA,NA,mom,0,29.661,33.215
2962,calf,annoy,83,3.318,19,1,0,31,0.775,,NA,NA,NA,milk,0,3.753,7.296
2962,knock,otter,63,3.966,38,1,1,16,0.4,knock,0,NA,7.271,dolar,0,4.657,11.815
2962,replace,roach,80,10.602,36,1,1,28,0.7,replace,0,NA,13.442,teacher,0,3.945,7.85
2962,need,faucet,94,11.432,32,1,0,37,0.925,,NA,NA,NA,cifo,0,21.538,25.894
2962,shrink,mafia,79,9.034,29,1,0,23,0.575,,NA,NA,NA,sales,0,18.972,21.698
2962,date,laugh,38,9.961,3,1,0,7,0.175,,NA,NA,NA,monday,0,4.867,8.363
2962,collect,loyalty,99,8.199,18,1,0,39,0.975,,NA,NA,NA,loyalty,1,23.565,25.008
2962,mill,feast,34,11.577,11,1,1,6,0.15,no,0,NA,6.588,no,0,4.427,6.12
2962,nerve,bumper,63,10.13,17,1,1,14,0.35,no,0,NA,4.651,horse,0,13.361,20.881
2962,grip,beach,58,6.332,33,1,0,11,0.275,,NA,NA,NA,hand,0,4.277,7.877
2962,forest,knob,93,8.782,24,1,1,36,0.9,forest,0,NA,26.827,soap,0,11.596,35.053
2962,prison,loaf,87,8.868,6,1,1,34,0.85,no,0,NA,4.437,strong,0,6.737,10.554
2962,banner,glide,25,10.298,35,1,1,2,0.05,banner,0,NA,5.033,USA,0,5.305,7.349
2962,anger,decay,79,7.831,1,1,1,24,0.6,no,0,NA,11.863,red,0,14.885,16.728
2962,pork,emperor,74,9.297,25,1,0,21,0.525,,NA,NA,NA,circle,0,7.945,42.136
2962,remind,foam,81,7.925,28,1,0,29,0.725,,NA,NA,NA,paper,0,50.762,54.176
2962,pea,bathtub,32,10.031,2,1,0,5,0.125,,NA,NA,NA,small,0,5.696,9.338
2962,capital,figure,40,3.028,34,1,1,8,0.2,capital,0,NA,5.494,no,0,9.599,11.258
2962,bleach,ruin,97,8.98,8,1,1,38,0.95,no,0,NA,4.968,no,0,4.569,6.508
2962,chicken,beet,85,13.27,10,1,0,33,0.825,,NA,NA,NA,beet,1,29.291,30.538
2962,process,joker,69,11.244,31,1,0,17,0.425,,NA,NA,NA,motor,0,85.269,90.328
2962,want,ascent,92,7.713,4,1,0,35,0.875,,NA,NA,NA,come,0,65.182,68.136
2962,risk,zero,73,8.392,37,1,1,20,0.5,risk,0,NA,4.607,cero,0,14.385,19.784
2962,climax,saucer,31,4.24,27,1,1,4,0.1,climax,0,NA,5.576,no,0,11.496,13.379
2972,bias,sirloin,36,2.286,31,1,1,24,0.6,skip,0,NA,2.352,skip,0,2.435,6.032
2972,bullet,walkway,30,1.645,8,1,0,13,0.325,,NA,NA,NA,skip,0,13.128,15.696
2972,port,cinema,63,4.35,32,1,0,37,0.925,,NA,NA,NA,skip,0,1.802,3.655
2972,prison,loaf,39,11.022,20,1,1,28,0.7,school,0,NA,7.109,school,0,2.369,4.567
2972,date,laugh,31,2.095,23,1,0,15,0.375,,NA,NA,NA,skip,0,1.853,4.103
2972,need,faucet,22,1.973,17,1,1,2,0.05,skip,0,NA,4.576,ruin,0,1.471,4.823
2972,bleach,ruin,70,1.518,13,1,0,39,0.975,,NA,NA,NA,ruin,1,1.572,5.575
2972,calf,annoy,29,1.781,33,1,0,11,0.275,,NA,NA,NA,ham,0,1.609,3.767
2972,shrink,mafia,26,1.55,38,1,1,6,0.15,skip,0,NA,2.392,skip,0,4.11,6.215
2972,climax,saucer,40,1.885,30,1,1,30,0.75,food,0,NA,5.116,forest,0,1.655,6.959
2972,smother,surgery,30,1.685,4,1,1,12,0.3,rope,0,NA,4.423,skip,0,2.382,4.367
2972,forest,knob,28,2.597,27,1,0,7,0.175,,NA,NA,NA,skip,0,1.256,3.887
2972,process,joker,61,1.581,3,1,1,36,0.9,skip,0,NA,4.667,machine,0,2.14,4.879
2972,caring,skirt,23,1.405,26,1,1,4,0.1,skip,0,NA,2.742,bear,0,1.614,3.688
2972,rock,milk,34,1.466,39,1,0,19,0.475,,NA,NA,NA,skip,0,1.417,4.359
2972,remind,foam,36,1.717,36,1,0,23,0.575,,NA,NA,NA,skip,0,2.109,4.183
2972,banner,glide,66,4.436,14,1,1,38,0.95,skip,0,NA,5.237,hope,0,2.194,4.214
2972,chicken,beet,37,1.667,24,1,1,26,0.65,skip,0,NA,4.103,skip,0,1.339,3.535
2972,biology,temper,29,1.668,37,1,1,10,0.25,skip,0,NA,2.423,skip,0,1.296,3.408
2972,knock,otter,31,2.014,7,1,1,14,0.35,skip,0,NA,4.612,skip,0,1.648,3.671
2972,anger,decay,28,2.638,19,1,1,8,0.2,skip,0,NA,4.582,skip,0,1.248,3.248
2972,bacon,feud,57,1.67,18,1,0,33,0.825,,NA,NA,NA,skip,0,1.64,3.591
2972,nerve,bumper,55,1.605,28,1,1,32,0.8,skip,0,NA,2.086,skip,0,1.24,3.447
2972,replace,roach,79,1.332,10,1,1,40,1,birth,0,NA,5.336,skip,0,1.324,3.495
2972,visit,glove,34,1.478,40,1,1,20,0.5,skip,0,NA,2.318,skip,0,1.41,3.367
2972,find,clown,22,2.142,15,1,0,3,0.075,,NA,NA,NA,skip,0,1.274,3.28
2972,pea,bathtub,37,1.591,16,1,0,25,0.625,,NA,NA,NA,skip,0,1.234,3.311
2972,risk,zero,32,1.853,6,1,0,17,0.425,,NA,NA,NA,skip,0,1.363,3.615
2972,plant,worm,24,4.709,21,1,0,5,0.125,,NA,NA,NA,skip,0,1.359,7.768
2972,glue,force,40,1.396,5,1,0,29,0.725,,NA,NA,NA,boon,0,2.049,4.782
2972,fee,chowder,60,1.422,22,1,1,34,0.85,crowd,0,NA,12.365,skip,0,1.744,3.792
2972,fan,feature,35,1.546,12,1,0,21,0.525,,NA,NA,NA,skip,0,1.253,3.359
2972,capital,figure,34,2.213,25,1,1,18,0.45,skip,0,NA,8.215,skip,0,1.315,3.199
2972,pork,emperor,32,1.523,1,1,1,16,0.4,skip,0,NA,7.559,skip,0,1.207,3.231
2972,copy,bedroom,60,1.828,2,1,0,35,0.875,,NA,NA,NA,skip,0,1.207,3.175
2972,want,ascent,37,2.163,34,1,0,27,0.675,,NA,NA,NA,skip,0,1.361,3.511
2972,grip,beach,29,1.268,35,1,0,9,0.225,,NA,NA,NA,skip,0,1.24,3.439
2972,link,crisis,19,1.484,29,1,0,1,0.025,,NA,NA,NA,skip,0,1.251,3.319
2972,collect,loyalty,51,1.821,11,1,0,31,0.775,,NA,NA,NA,skip,0,1.339,3.459
2972,mill,feast,35,1.694,9,1,1,22,0.55,small,0,NA,5.759,skip,0,1.501,3.944
3226,banner,glide,1,16.246,1,1,0,1,0.025,,NA,NA,NA,blue,0,14.801,17.178
3226,shrink,mafia,55,6.47,37,1,0,9,0.225,,NA,NA,NA,wrap,0,6.286,8.197
3226,biology,temper,25,4.222,28,1,1,6,0.15,study,0,NA,3.799,specimen,0,5.126,8.047
3226,replace,roach,66,98.691,15,1,0,19,0.475,,NA,NA,NA,reuse,0,2.424,5.159
3226,process,joker,19,3.014,5,1,0,5,0.125,,NA,NA,NA,banner,0,2.728,4.455
3226,mill,feast,64,2.246,4,1,1,18,0.45,saw,0,NA,6.743,saw,0,1.787,3.423
3226,forest,knob,14,7.468,14,1,1,4,0.1,green,0,NA,5.683,green,0,1.633,3.47
3226,anger,decay,74,1.997,8,1,1,26,0.65,rock,0,NA,6.373,red,0,2.618,3.815
3226,date,laugh,86,5.557,16,1,1,36,0.9,approach,0,NA,20.211,month,0,7.16,8.882
3226,caring,skirt,59,6.406,25,1,0,13,0.325,,NA,NA,NA,howl,0,6.745,8.203
3226,pea,bathtub,70,16.109,40,1,0,23,0.575,,NA,NA,NA,soup,0,1.201,3.016
3226,capital,figure,78,4.988,12,1,0,33,0.825,,NA,NA,NA,copy,0,7.232,9.807
3226,remind,foam,59,2.125,3,1,1,12,0.3,roller,0,NA,14.604,reuse,0,6.731,8.791
3226,rock,milk,73,2.092,17,1,0,25,0.625,,NA,NA,NA,grey,0,2.077,3.798
3226,collect,loyalty,51,5.481,6,1,0,7,0.175,,NA,NA,NA,ball,0,2.802,4.334
3226,fan,feature,81,1.863,36,1,1,34,0.85,tastic,0,NA,13.79,full,0,15.191,17.079
3226,find,clown,58,2.83,38,1,0,11,0.275,,NA,NA,NA,keep,0,1.763,3.679
3226,bullet,walkway,75,2.664,22,1,0,29,0.725,,NA,NA,NA,proof,0,1.674,3.446
3226,visit,glove,99,3.433,13,1,1,38,0.95,rock,0,NA,4.928,see,0,1.824,3.175
3226,copy,bedroom,74,16.614,7,1,0,27,0.675,,NA,NA,NA,bedroom,1,3.055,5.246
3226,nerve,bumper,59,11.733,2,1,1,14,0.35,damage,0,NA,52.315,damage,0,2.869,4.59
3226,bias,sirloin,100,4.475,18,1,1,40,1,sirloin,1,NA,6.813,sirloin,1,3.46,6.23
3226,link,crisis,72,2.934,39,1,1,24,0.6,metal,0,NA,4.468,copy,0,1.963,9.214
3226,bacon,feud,57,12.638,26,1,1,10,0.25,meat,0,NA,4.875,butter,0,1.891,3.39
3226,port,cinema,62,4.854,35,1,0,15,0.375,,NA,NA,NA,authority,0,2.673,4.886
3226,fee,chowder,75,3.094,30,1,1,28,0.7,money,0,NA,6.677,pay,0,2.576,4.045
3226,chicken,beet,9,1.828,21,1,0,3,0.075,,NA,NA,NA,coop,0,1.635,5.463
3226,calf,annoy,76,2.11,11,1,0,31,0.775,,NA,NA,NA,baby,0,7.328,9.816
3226,grip,beach,76,1.914,27,1,1,30,0.75,water,0,NA,3.103,beach,1,3.817,5.701
3226,glue,force,82,9.481,29,1,0,35,0.875,,NA,NA,NA,stick,0,1.267,5.014
3226,bleach,ruin,69,1.652,24,1,1,22,0.55,phone,0,NA,6.397,beach,0,2.654,4.359
3226,want,ascent,1,8.027,23,1,1,2,0.05,beet,0,NA,9.809,more,0,1.53,2.735
3226,risk,zero,63,12.332,32,1,0,17,0.425,,NA,NA,NA,always,0,1.547,4.838
3226,smother,surgery,68,2.382,31,1,1,20,0.5,surgery,1,NA,6.454,surgery,1,2.122,4.615
3226,plant,worm,62,2.828,9,1,1,16,0.4,soil,0,NA,7.362,bulbs,0,2.898,4.647
3226,pork,emperor,77,10.147,20,1,1,32,0.8,otter,0,NA,6.014,tender,0,1.415,3.199
3226,prison,loaf,90,7.241,33,1,0,37,0.925,,NA,NA,NA,scary,0,2.403,4.279
3226,need,faucet,54,2.066,10,1,1,8,0.2,rock,0,NA,7.615,want,0,1.715,3.15
3226,knock,otter,68,6.171,19,1,0,21,0.525,,NA,NA,NA,door,0,1.018,2.711
3226,climax,saucer,100,6.48,34,1,0,39,0.975,,NA,NA,NA,center,0,3.566,7.478
3367,mill,feast,24,2.034,12,1,0,25,0.625,,NA,NA,NA,feast,1,14.754,18.05
3367,shrink,mafia,23,2.319,37,1,0,23,0.575,,NA,NA,NA,small,0,10.749,13.168
3367,risk,zero,80,3.129,34,1,1,40,1,zero,1,NA,15.077,skip,0,20.276,22.93
3367,visit,glove,12,1.744,25,1,1,4,0.1,loaf,0,NA,19.222,skip,0,29.845,32.119
3367,smother,surgery,62,2.955,17,1,1,36,0.9,surgery,1,NA,14.751,surgery,1,4.914,9.344
3367,glue,force,41,1.682,18,1,0,33,0.825,,NA,NA,NA,force,1,3.851,7.909
3367,calf,annoy,12,1.891,14,1,0,5,0.125,,NA,NA,NA,pork,0,11.863,14.904
3367,link,crisis,12,3.511,21,1,1,6,0.15,crisis,1,NA,10.708,glove,0,30.834,33.565
3367,grip,beach,72,2.572,29,1,0,37,0.925,,NA,NA,NA,beach,1,11.509,14.322
3367,port,cinema,22,1.818,15,1,0,21,0.525,,NA,NA,NA,cinema,1,12.838,19.279
3367,date,laugh,15,2.423,27,1,1,10,0.25,laugh,1,NA,12.759,crisis,0,12.597,16.538
3367,copy,bedroom,13,1.984,20,1,0,7,0.175,,NA,NA,NA,bedroom,1,3.44,7.785
3367,need,faucet,9,2.072,6,1,0,1,0.025,,NA,NA,NA,faucet,1,12.749,16.535
3367,want,ascent,21,2.317,36,1,0,19,0.475,,NA,NA,NA,ascent,1,8.256,12.024
3367,bleach,ruin,80,2.101,35,1,0,39,0.975,,NA,NA,NA,ruin,1,10.335,13.522
3367,pork,emperor,19,1.829,24,1,1,16,0.4,ascent,0,NA,35.686,meat,0,20.754,23.513
3367,caring,skirt,28,3.532,1,1,1,28,0.7,skirt,1,NA,33.796,skirt,1,10.028,15.215
3367,bacon,feud,16,3.76,3,1,1,14,0.35,feud,1,NA,21.391,feud,1,17.982,21.147
3367,biology,temper,14,1.656,30,1,0,9,0.225,,NA,NA,NA,temper,1,5.348,9.089
3367,plant,worm,44,2.894,39,1,0,35,0.875,,NA,NA,NA,worm,1,13.496,17.402
3367,banner,glide,15,3.909,10,1,0,11,0.275,,NA,NA,NA,force,0,6.969,10.627
3367,forest,knob,16,1.664,8,1,1,12,0.3,knob,1,NA,12.542,knob,1,13.675,17.299
3367,bias,sirloin,25,1.619,33,1,1,26,0.65,milk,0,NA,9.443,steak,0,17.981,22.579
3367,knock,otter,23,1.518,40,1,1,24,0.6,offer,0,NA,13.807,out,0,5.225,12.358
3367,chicken,beet,42,2.942,22,1,1,34,0.85,beet,1,NA,12.045,beet,1,8.584,16.243
3367,climax,saucer,27,1.645,7,1,0,27,0.675,,NA,NA,NA,saucer,1,5.656,9.699
3367,pea,bathtub,11,1.986,28,1,0,3,0.075,,NA,NA,NA,chowder,0,15.817,19.349
3367,prison,loaf,21,2.46,4,1,1,20,0.5,loaf,1,NA,25.883,skip,0,11.624,13.805
3367,anger,decay,77,1.777,2,1,1,38,0.95,decay,1,NA,17.653,decay,1,5.948,8.541
3367,nerve,bumper,22,1.813,11,1,1,22,0.55,bumper,1,NA,17.656,bumper,1,11.183,14.507
3367,rock,milk,30,1.68,23,1,1,30,0.75,milk,1,NA,7.461,milk,1,11.925,13.838
3367,replace,roach,9,3.04,31,1,1,2,0.05,loaf,0,NA,13.667,roach,1,4.383,11.689
3367,process,joker,16,4.094,9,1,0,13,0.325,,NA,NA,NA,laugh,0,9.497,11.751
3367,find,clown,17,1.609,26,1,0,15,0.375,,NA,NA,NA,clown,1,12.252,14.692
3367,fee,chowder,14,2.116,19,1,1,8,0.2,chowder,1,NA,12.65,skip,0,4.981,7.322
3367,bullet,walkway,41,2.694,5,1,1,32,0.8,walkway,1,NA,11.075,walkway,1,5.303,12.04
3367,capital,figure,28,3.638,16,1,0,29,0.725,,NA,NA,NA,loyalty,0,14.879,22.714
3367,collect,loyalty,36,25.001,13,1,0,31,0.775,,NA,NA,NA,loyalty,1,16.559,21.041
3367,remind,foam,21,2.101,32,1,1,18,0.45,foam,1,NA,15.204,foam,1,10.423,13.597
3367,fan,feature,19,2.051,38,1,0,17,0.425,,NA,NA,NA,skip,0,5.212,8.043
3377,mill,feast,35,4.457,16,1,1,22,0.55,devour,0,NA,17.888,beach,0,7.908,12.144
3377,chicken,beet,69,2.78,21,1,1,36,0.9,beet,1,NA,4.476,beet,1,13.333,18.121
3377,risk,zero,68,2.756,38,1,0,35,0.875,,NA,NA,NA,giraffe,0,23.056,26.45
3377,glue,force,44,3.239,25,1,0,25,0.625,,NA,NA,NA,break,0,19.536,22.586
3377,find,clown,63,4.286,7,1,0,31,0.775,,NA,NA,NA,dog,0,20.932,23.478
3377,date,laugh,57,5.929,17,1,1,26,0.65,laugh,1,NA,6.367,horror,0,8.354,11.586
3377,smother,surgery,67,8.493,6,1,1,34,0.85,surgeon,0,NA,8.031,surgeon,0,11.326,26.086
3377,knock,otter,27,2.528,13,1,0,15,0.375,,NA,NA,NA,forest,0,9.239,12.441
3377,visit,glove,9,10.677,24,1,1,2,0.05,,0,NA,5.75,priest,0,13.862,16.717
3377,grip,beach,13,5.624,5,1,1,6,0.15,beach,1,NA,7.604,pineapple,0,15.871,20.385
3377,biology,temper,38,3.68,34,1,0,23,0.575,,NA,NA,NA,plant,0,9.84,12.678
3377,pea,bathtub,25,20.998,11,1,0,11,0.275,,NA,NA,NA,bathtub,1,2.479,6.253
3377,port,cinema,18,3.025,32,1,1,8,0.2,cinema,1,NA,5.725,cinema,1,5.015,7.659
3377,process,joker,10,4.4,22,1,0,3,0.075,,NA,NA,NA,cheese,0,7.31,10.011
3377,capital,figure,65,2.914,20,1,1,32,0.8,figure,1,NA,6.196,building,0,17.903,21.104
3377,link,crisis,23,2.643,4,1,1,10,0.25,forest,0,NA,12.994,rope,0,7.866,10.055
3377,climax,saucer,77,3.352,23,1,0,39,0.975,,NA,NA,NA,door,0,17.337,20.237
3377,forest,knob,22,2.565,3,1,0,9,0.225,,NA,NA,NA,dream,0,10.781,13.162
3377,rock,milk,42,2.463,28,1,1,24,0.6,milk,1,NA,4.702,eagle,0,14.89,18.698
3377,bleach,ruin,89,3.105,31,1,1,40,1,ruin,1,NA,5.941,ruin,1,4.476,6.873
3377,fee,chowder,28,3.057,29,1,0,17,0.425,,NA,NA,NA,fish,0,6.528,9.247
3377,remind,foam,12,5.928,35,1,0,5,0.125,,NA,NA,NA,blank,0,8.71,12.452
3377,anger,decay,32,1.865,1,1,1,20,0.5,priest,0,NA,17.645,building,0,12.913,16.469
3377,nerve,bumper,30,4.175,18,1,1,18,0.45,,0,NA,8.503,link,0,9.482,11.756
3377,bacon,feud,15,2.036,40,1,0,7,0.175,,NA,NA,NA,anger,0,17.936,21.463
3377,pork,emperor,61,6.863,9,1,1,30,0.75,emporer,0,NA,7.619,beach,0,12.47,15.748
3377,shrink,mafia,73,8.751,30,1,0,37,0.925,,NA,NA,NA,mafia,1,10.591,15.018
3377,replace,roach,32,3.632,26,1,0,19,0.475,,NA,NA,NA,card,0,6.356,8.673
3377,prison,loaf,59,4.084,37,1,0,27,0.675,,NA,NA,NA,priest,0,6.61,9.899
3377,banner,glide,7,3.643,2,1,0,1,0.025,,NA,NA,NA,house,0,7.644,10.269
3377,bias,sirloin,10,1.958,39,1,1,4,0.1,sirloin,1,NA,8.761,giraffe,0,6.425,9.954
3377,want,ascent,66,6.573,15,1,0,33,0.825,,NA,NA,NA,strawberry,0,4,7.514
3377,need,faucet,33,4.331,8,1,0,21,0.525,,NA,NA,NA,carpet,0,10.46,14.444
3377,bullet,walkway,60,3.284,10,1,0,29,0.725,,NA,NA,NA,scarf,0,16.875,19.618
3377,copy,bedroom,28,2.476,12,1,1,16,0.4,bedroom,1,NA,5.943,chair,0,7.125,10.047
3377,plant,worm,73,2.049,33,1,1,38,0.95,worm,1,NA,5.207,link,0,7.316,9.988
3377,calf,annoy,60,2.982,14,1,1,28,0.7,annoy,1,NA,7.19,annoy,1,12.898,15.874
3377,caring,skirt,25,2.306,19,1,1,12,0.3,skirt,1,NA,6.984,window,0,14.684,17.663
3377,fan,feature,27,4.331,27,1,1,14,0.35,feature,1,NA,5.74,appliance,0,30.921,35.109
3377,collect,loyalty,26,1.822,36,1,0,13,0.325,,NA,NA,NA,chicken,0,5.89,9.405
3461,anger,decay,32,4.08,2,1,1,14,0.35,,0,NA,19.131,,0,3.925,15.247
3461,pea,bathtub,64,4.337,4,1,1,32,0.8,bathtub,1,NA,4.627,bathtub,1,3.094,6.162
3461,need,faucet,33,4.748,8,1,1,16,0.4,,0,NA,3.661,,0,0,4.649
3461,grip,beach,20,5.504,19,1,0,5,0.125,,NA,NA,NA,,0,0,2.939
3461,chicken,beet,61,4.155,12,1,0,29,0.725,,NA,NA,NA,,0,0,3.71
3461,nerve,bumper,42,4.97,33,1,0,23,0.575,,NA,NA,NA,,0,0,2.564
3461,date,laugh,77,2.396,21,1,0,39,0.975,,NA,NA,NA,,0,0,9.556
3461,mill,feast,73,7.388,29,1,1,38,0.95,feast,1,NA,4.817,feast,1,2.272,3.755
3461,rock,milk,37,5.7,10,1,1,20,0.5,milk,1,NA,4.527,milk,1,2.053,5.522
3461,risk,zero,59,2.08,36,1,0,27,0.675,,NA,NA,NA,,0,0,1.716
3461,knock,otter,43,5.151,32,1,1,24,0.6,,0,NA,2.338,,0,0,2.705
3461,process,joker,69,2.143,40,1,0,35,0.875,,NA,NA,NA,joker,1,2.422,4.243
3461,banner,glide,63,3.102,7,1,1,30,0.75,,0,NA,26.442,,0,0,2.42
3461,find,clown,89,5.864,3,1,1,40,1,,0,NA,17.113,,0,0,2.176
3461,collect,loyalty,35,3.307,15,1,0,17,0.425,,NA,NA,NA,,0,0,4.601
3461,bleach,ruin,70,2.819,23,1,0,37,0.925,,NA,NA,NA,,0,0,2.575
3461,copy,bedroom,39,2.416,25,1,1,22,0.55,,0,NA,5.522,,0,0,1.737
3461,calf,annoy,33,6.485,13,1,0,15,0.375,,NA,NA,NA,,0,0,4.053
3461,port,cinema,27,3.914,28,1,0,9,0.225,,NA,NA,NA,,0,0,5.718
3461,bias,sirloin,30,5.316,6,1,0,13,0.325,,NA,NA,NA,,0,0,2.105
3461,smother,surgery,17,2.786,22,1,0,3,0.075,,NA,NA,NA,surgery,1,1.898,4.008
3461,replace,roach,70,3.406,20,1,1,36,0.9,roach,1,NA,4.721,roaches,0,6.536,8.425
3461,visit,glove,24,4.535,26,1,0,7,0.175,,NA,NA,NA,,0,0,1.496
3461,want,ascent,27,4.09,27,1,1,8,0.2,,0,NA,2.77,,0,0,3.864
3461,link,crisis,47,1.643,9,1,1,26,0.65,crisis,1,NA,7.241,crisis,1,4.051,5.968
3461,glue,force,27,9.377,39,1,1,10,0.25,,0,NA,2.751,,0,0,2.961
3461,remind,foam,29,4.327,17,1,1,12,0.3,,0,NA,4.832,,0,0,2.263
3461,climax,saucer,35,2.322,24,1,1,18,0.45,,0,NA,5.551,,0,0,2.104
3461,capital,figure,14,2.088,30,1,0,1,0.025,,NA,NA,NA,,0,0,3.302
3461,prison,loaf,37,1.349,18,1,0,19,0.475,,NA,NA,NA,,0,0,4.406
3461,forest,knob,17,2.432,16,1,1,2,0.05,,0,NA,2.11,,0,0,4.203
3461,pork,emperor,63,2.222,38,1,0,31,0.775,,NA,NA,NA,,0,0,3.795
3461,biology,temper,29,4.414,1,1,0,11,0.275,,NA,NA,NA,,0,0,3.791
3461,bullet,walkway,66,3.687,37,1,1,34,0.85,,0,NA,2.503,,0,0,6.585
3461,shrink,mafia,44,4.485,31,1,0,25,0.625,,NA,NA,NA,squad,0,12.849,16.857
3461,fan,feature,37,1.798,35,1,0,21,0.525,,NA,NA,NA,,0,0,3.908
3461,caring,skirt,18,6.142,34,1,1,4,0.1,,0,NA,2.045,,0,0,1.598
3461,bacon,feud,66,10.842,14,1,0,33,0.825,,NA,NA,NA,,0,0,10.527
3461,plant,worm,60,3.361,5,1,1,28,0.7,worm,1,NA,5.245,,0,0,4.611
3461,fee,chowder,21,3.328,11,1,1,6,0.15,,0,NA,5.55,,0,0,2.333
3503,bacon,feud,1,3.176,17,1,1,12,0.3,chicken,0,NA,4.14,chicken,0,4.307,5.959
3503,calf,annoy,1,3.226,8,1,0,17,0.425,,NA,NA,NA,skip,0,2.554,3.366
3503,bias,sirloin,1,4.066,40,1,0,9,0.225,,NA,NA,NA,skip,0,6.728,9.045
3503,banner,glide,1,2.053,13,1,1,6,0.15,skip,0,NA,3.297,althete,0,4.823,6.512
3503,need,faucet,1,2.369,30,1,0,13,0.325,,NA,NA,NA,skip,0,5.001,8.52
3503,smother,surgery,2,3.158,34,1,1,22,0.55,surgery,1,NA,2.736,surgery,1,1.727,2.876
3503,port,cinema,1,4.722,21,1,0,7,0.175,,NA,NA,NA,ship,0,3.507,4.663
3503,bleach,ruin,79,2.237,5,1,1,40,1,ruin,1,NA,3.217,ruin,1,4.442,5.463
3503,risk,zero,43,4.212,12,1,0,39,0.975,,NA,NA,NA,skip,0,5.533,8.565
3503,biology,temper,1,3.631,35,1,1,2,0.05,skip,0,NA,2.283,skip,0,3.134,3.888
3503,fee,chowder,1,6.314,3,1,1,10,0.25,skip,0,NA,8.103,skip,0,3.88,4.732
3503,process,joker,1,2.508,19,1,0,1,0.025,,NA,NA,NA,skip,0,1.578,2.444
3503,link,crisis,4,4.998,36,1,1,26,0.65,skip,0,NA,2.565,skip,0,12.641,13.443
3503,climax,saucer,1,2.216,27,1,0,11,0.275,,NA,NA,NA,mountain,0,2.731,3.986
3503,date,laugh,9,2.987,22,1,1,32,0.8,laugh,1,NA,2.476,laugh,1,2.163,2.932
3503,chicken,beet,1,3.265,23,1,1,18,0.45,skip,0,NA,5.168,lunch,0,6.085,7.361
3503,knock,otter,4,3.019,6,1,0,27,0.675,,NA,NA,NA,skip,0,3.432,4.434
3503,pork,emperor,3,4.51,29,1,1,24,0.6,skip,0,NA,3.839,write,0,5.058,6.035
3503,shrink,mafia,1,3.029,38,1,0,15,0.375,,NA,NA,NA,skip,0,1.494,2.917
3503,visit,glove,2,36.767,1,1,0,23,0.575,,NA,NA,NA,water,0,2.606,3.486
3503,caring,skirt,1,2.445,39,1,0,5,0.125,,NA,NA,NA,skip,0,1.388,2.335
3503,anger,decay,8,4.273,37,1,0,31,0.775,,NA,NA,NA,skip,0,1.38,2.429
3503,copy,bedroom,4,1.72,16,1,1,28,0.7,skip,0,NA,4.323,skip,0,1.706,2.55
3503,grip,beach,1,84.536,28,1,0,19,0.475,,NA,NA,NA,skip,0,1.335,2.243
3503,mill,feast,22,1.722,14,1,1,38,0.95,feast,1,NA,4.921,feast,1,4.503,5.56
3503,forest,knob,2,5.902,15,1,0,21,0.525,,NA,NA,NA,skip,0,1.444,2.313
3503,glue,force,17,2.134,20,1,1,34,0.85,secure,0,NA,17.063,shrink,0,2.723,3.898
3503,bullet,walkway,1,1.772,32,1,1,4,0.1,skip,0,NA,4.765,skip,0,1.617,2.455
3503,pea,bathtub,1,2.893,26,1,1,8,0.2,bathtub,1,NA,3.823,bathtub,1,1.308,2.977
3503,find,clown,7,2.049,31,1,1,30,0.75,adventure,0,NA,4.372,skip,0,1.441,2.316
3503,plant,worm,19,2.624,18,1,0,35,0.875,,NA,NA,NA,skip,0,1.374,2.311
3503,replace,roach,1,2.982,24,1,1,20,0.5,report,0,NA,2.827,rethink,0,2.52,3.487
3503,want,ascent,1,2.206,25,1,1,14,0.35,skip,0,NA,2.559,skip,0,1.219,2.155
3503,rock,milk,1,3.403,9,1,1,16,0.4,milk,1,NA,12.368,milk,1,1.421,2.361
3503,prison,loaf,7,2.03,2,1,0,29,0.725,,NA,NA,NA,skip,0,1.283,2.118
3503,nerve,bumper,3,13.263,4,1,0,25,0.625,,NA,NA,NA,skip,0,1.316,2.294
3503,remind,foam,1,2.345,10,1,0,3,0.075,,NA,NA,NA,skip,0,1.478,2.475
3503,collect,loyalty,22,2.048,7,1,0,37,0.925,,NA,NA,NA,skip,0,1.312,2.136
3503,fan,feature,19,7.811,33,1,1,36,0.9,function,0,NA,3.305,function,0,1.206,2.294
3503,capital,figure,14,13.296,11,1,0,33,0.825,,NA,NA,NA,skip,0,1.23,2.036
3513,plant,worm,14,9.019,2,1,1,36,0.9,worm,1,NA,4.163,worm,1,1.852,7.031
3513,climax,saucer,15,9.185,36,1,0,37,0.925,,NA,NA,NA,garden,0,58.92,65.423
3513,bullet,walkway,4,4.721,27,1,0,11,0.275,,NA,NA,NA,skip,0,13.79,16.894
3513,anger,decay,9,6.226,4,1,1,30,0.75,boat,0,NA,20.215,biologist,0,4.273,10.221
3513,collect,loyalty,4,4.333,35,1,1,14,0.35,rain,0,NA,6.821,climb,0,7.11,9.832
3513,rock,milk,8,14.982,37,1,0,27,0.675,,NA,NA,NA,shoe,0,4.865,6.759
3513,pork,emperor,9,6.224,23,1,0,31,0.775,,NA,NA,NA,emperor,1,3.845,6.135
3513,replace,roach,5,7.208,8,1,0,15,0.375,,NA,NA,NA,bulb,0,8.351,11.36
3513,calf,annoy,4,13.18,31,1,1,10,0.25,annoy,1,NA,13.317,annoying,0,4.308,12.078
3513,process,joker,5,7.497,28,1,0,19,0.475,,NA,NA,NA,print,0,5.136,9.72
3513,smother,surgery,4,8.634,10,1,0,13,0.325,,NA,NA,NA,wood,0,3.682,5.735
3513,date,laugh,12,6.72,17,1,0,35,0.875,,NA,NA,NA,tree,0,2.652,5.284
3513,chicken,beet,9,6.579,30,1,1,28,0.7,beet,1,NA,4.946,scoop,0,6.805,8.768
3513,biology,temper,5,4.842,20,1,1,18,0.45,angry,0,NA,10.414,frustrated,0,9.002,12.285
3513,link,crisis,2,7.153,14,1,0,3,0.075,,NA,NA,NA,rebel,0,12.507,17.463
3513,bacon,feud,7,7.521,29,1,0,25,0.625,,NA,NA,NA,king,0,4.405,9.062
3513,copy,bedroom,3,7.93,5,1,0,7,0.175,,NA,NA,NA,comb,0,9.945,11.944
3513,mill,feast,7,6.559,6,1,1,26,0.65,feast,1,NA,3.937,feast,1,2.29,4.91
3513,forest,knob,1,5.813,33,1,0,1,0.025,,NA,NA,NA,tire,0,6.677,8.456
3513,pea,bathtub,9,8.03,24,1,1,32,0.8,bathtub,1,NA,5.519,bathtub,1,1.992,7.118
3513,bias,sirloin,4,5.97,22,1,1,8,0.2,drum,0,NA,7.359,marker,0,2.96,6.47
3513,risk,zero,19,7.152,19,1,1,40,1,zero,1,NA,5.416,zero,1,1.725,3.596
3513,fee,chowder,5,10.841,40,1,1,20,0.5,barge,0,NA,9.159,attraction,0,5.39,8.067
3513,caring,skirt,9,9.096,7,1,0,29,0.725,,NA,NA,NA,well,0,3.643,8.8
3513,shrink,mafia,11,9.991,11,1,1,34,0.85,mafia,1,NA,4.602,mafia,1,2.199,4.633
3513,find,clown,19,2.883,3,1,0,39,0.975,,NA,NA,NA,wall,0,7.112,19.605
3513,nerve,bumper,2,6.442,18,1,1,4,0.1,cushion,0,NA,8.012,nail,0,4.005,6.617
3513,prison,loaf,6,3.903,39,1,1,24,0.6,stamp,0,NA,8.208,schedule,0,5.452,8.15
3513,banner,glide,2,5.832,1,1,0,5,0.125,,NA,NA,NA,balm,0,3.828,5.766
3513,port,cinema,5,7.264,9,1,0,21,0.525,,NA,NA,NA,proud,0,8.807,19.654
3513,glue,force,3,8.218,13,1,1,6,0.15,seek,0,NA,14.154,wish,0,5.337,7.576
3513,capital,figure,2,9.835,16,1,1,2,0.05,statue,0,NA,22.758,statue,0,1.753,4.487
3513,bleach,ruin,19,6.09,25,1,1,38,0.95,ruin,1,NA,3.349,ruin,1,2.333,5.197
3513,knock,otter,6,9.137,32,1,0,23,0.575,,NA,NA,NA,sink,0,5.444,7.253
3513,grip,beach,4,3.431,12,1,0,9,0.225,,NA,NA,NA,gold,0,2.709,8.526
3513,remind,foam,4,8.768,21,1,1,12,0.3,mouse,0,NA,4.806,tack,0,5.827,8.463
3513,need,faucet,5,5.095,26,1,1,16,0.4,monkey,0,NA,6.806,bean,0,4.226,6.278
3513,want,ascent,11,9.19,38,1,0,33,0.825,,NA,NA,NA,ascend,0,3.555,6.774
3513,fan,feature,6,7.737,15,1,1,22,0.55,feud,0,NA,16.189,window,0,3.077,6.189
3513,visit,glove,5,5.785,34,1,0,17,0.425,,NA,NA,NA,time,0,6.104,7.615
3593,port,cinema,14,2.001,20,1,1,22,0.55,knot,0,NA,4.373,skip,0,0.935,2.072
3593,visit,glove,9,2.628,14,1,0,17,0.425,,NA,NA,NA,skip,0,1.583,2.568
3593,process,joker,3,1.337,5,1,1,4,0.1,face,0,NA,16.844,skip,0,0.934,2.099
3593,need,faucet,17,2.087,21,1,1,24,0.6,dog,0,NA,3.572,skip,0,0.706,2.117
3593,bacon,feud,21,1.204,37,1,1,28,0.7,dog,0,NA,5.07,skip,0,1.182,3.334
3593,plant,worm,25,1.687,29,1,1,32,0.8,worm,1,NA,3.26,skip,0,0.623,1.574
3593,nerve,bumper,1,2.489,31,1,1,2,0.05,dog,0,NA,3.321,skip,0,0.632,2.186
3593,calf,annoy,4,1.761,27,1,1,8,0.2,dog,0,NA,2.754,skip,0,0.647,1.88
3593,capital,figure,18,1.731,18,1,1,26,0.65,donkey,0,NA,8.905,skip,0,0.847,1.81
3593,want,ascent,1,5.867,12,1,0,1,0.025,,NA,NA,NA,skip,0,0.901,1.912
3593,forest,knob,7,1.906,35,1,1,14,0.35,dog,0,NA,1.83,skip,0,0.869,1.994
3593,bullet,walkway,8,0.959,32,1,0,15,0.375,,NA,NA,NA,skip,0,0.77,1.72
3593,pork,emperor,21,2.19,39,1,0,27,0.675,,NA,NA,NA,skip,0,0.955,1.962
3593,anger,decay,41,2.094,34,1,0,37,0.925,,NA,NA,NA,skip,0,1.193,2.519
3593,mill,feast,59,3.409,33,1,1,38,0.95,dog,0,NA,3.478,skip,0,0.929,1.962
3593,risk,zero,98,3.096,11,1,1,40,1,desk,0,NA,5.004,skip,0,0.63,1.701
3593,knock,otter,5,7.825,38,1,0,9,0.225,,NA,NA,NA,skip,0,1.769,3.566
3593,bias,sirloin,7,1.479,9,1,0,13,0.325,,NA,NA,NA,skip,0,0.85,1.791
3593,caring,skirt,2,1.062,3,1,0,3,0.075,,NA,NA,NA,skip,0,0.658,1.665
3593,fan,feature,31,1.764,2,1,1,34,0.85,dog,0,NA,8.036,skip,0,0.743,2.527
3593,collect,loyalty,85,1.487,28,1,0,39,0.975,,NA,NA,NA,loyalty,1,0.816,2.475
3593,shrink,mafia,3,1.676,16,1,0,5,0.125,,NA,NA,NA,skip,0,0.604,1.959
3593,biology,temper,13,2.006,24,1,0,21,0.525,,NA,NA,NA,skip,0,0.606,1.585
3593,link,crisis,24,2.794,25,1,1,30,0.75,dog,0,NA,3.833,skip,0,0.629,1.525
3593,grip,beach,5,1.739,17,1,1,10,0.25,glove,0,NA,3.339,skip,0,1.047,2.003
3593,rock,milk,12,13.278,7,1,1,20,0.5,meat,0,NA,10.841,skip,0,0.578,1.554
3593,climax,saucer,6,1.404,36,1,1,12,0.3,dog,0,NA,2.567,skip,0,0.745,2.039
3593,pea,bathtub,24,1.923,19,1,0,31,0.775,,NA,NA,NA,skip,0,0.53,1.699
3593,bleach,ruin,12,1.82,22,1,0,19,0.475,,NA,NA,NA,skip,0,0.559,2.176
3593,glue,force,16,1.095,1,1,0,23,0.575,,NA,NA,NA,skip,0,0.631,1.77
3593,remind,foam,5,1.417,8,1,0,11,0.275,,NA,NA,NA,skip,0,1.037,2.152
3593,copy,bedroom,4,3.016,13,1,1,6,0.15,paste,0,NA,159.827,skip,0,0.964,2.105
3593,banner,glide,4,6.633,30,1,0,7,0.175,,NA,NA,NA,skip,0,0.986,1.903
3593,smother,surgery,32,1.149,6,1,1,36,0.9,sugary,0,NA,11.187,sugary,0,1.489,2.859
3593,replace,roach,11,2.51,23,1,1,18,0.45,dog,0,NA,4.165,skip,0,0.917,3.022
3593,date,laugh,31,1.543,4,1,0,35,0.875,,NA,NA,NA,skip,0,0.823,1.912
3593,prison,loaf,17,13.357,40,1,0,25,0.625,,NA,NA,NA,skip,0,0.967,2.458
3593,find,clown,21,1.584,26,1,0,29,0.725,,NA,NA,NA,skip,0,1.021,1.624
3593,chicken,beet,30,2.089,15,1,0,33,0.825,,NA,NA,NA,beet,1,1.027,1.91
3593,fee,chowder,9,1.188,10,1,1,16,0.4,foam,0,NA,18.305,skip,0,0.677,1.38
4172,remind,foam,32,8.027,14,1,0,5,0.125,,NA,NA,NA,request,0,10.512,13.601
4172,collect,loyalty,59,6.978,12,1,1,26,0.65,reward,0,NA,9.087,beach,0,16.056,18.153
4172,mill,feast,76,8.429,17,1,0,35,0.875,,NA,NA,NA,feast,1,9.618,11.69
4172,smother,surgery,46,7.624,29,1,0,15,0.375,,NA,NA,NA,doctor,0,6.346,8.709
4172,capital,figure,61,14.7,18,1,1,28,0.7,figure,1,NA,11.586,leader,0,9.811,11.817
4172,banner,glide,21,6.408,31,1,0,1,0.025,,NA,NA,NA,skip,0,14.656,16.391
4172,plant,worm,97,7.973,13,1,0,39,0.975,,NA,NA,NA,worm,1,8.559,10.613
4172,fan,feature,40,5.578,39,1,0,9,0.225,,NA,NA,NA,skip,0,14.187,16.1
4172,bleach,ruin,71,7.01,11,1,1,32,0.8,stain,0,NA,6.231,stain,0,2.287,4.311
4172,visit,glove,29,4.214,35,1,1,4,0.1,glove,1,NA,11.906,laugh,0,22.068,25.46
4172,risk,zero,95,8.959,1,1,1,38,0.95,zero,1,NA,12.098,zero,1,9.75,11.684
4172,bacon,feud,75,5.599,32,1,1,34,0.85,feud,1,NA,11.173,feud,1,5.271,7.295
4172,caring,skirt,45,8.719,9,1,0,13,0.325,,NA,NA,NA,smile,0,8.468,11.201
4172,chicken,beet,24,7.104,8,1,0,3,0.075,,NA,NA,NA,milk,0,23.725,25.537
4172,process,joker,58,10.583,21,1,1,24,0.6,internal,0,NA,18.015,banner,0,26.427,28.273
4172,pork,emperor,23,5.588,37,1,1,2,0.05,loin,0,NA,15.592,skip,0,12.516,14.244
4172,knock,otter,53,6.064,22,1,0,19,0.475,,NA,NA,NA,door,0,6.02,7.534
4172,bias,sirloin,38,5.193,25,1,0,7,0.175,,NA,NA,NA,envy,0,3.958,5.835
4172,nerve,bumper,53,6.132,16,1,1,20,0.5,otter,0,NA,13.634,skip,0,8.2,9.888
4172,glue,force,55,9.458,40,1,0,21,0.525,,NA,NA,NA,fold,0,11.244,16.068
4172,date,laugh,68,4.862,23,1,0,31,0.775,,NA,NA,NA,laugh,1,4.89,6.796
4172,pea,bathtub,58,5.307,10,1,0,23,0.575,,NA,NA,NA,bath,0,10.789,12.527
4172,forest,knob,51,7.341,38,1,0,17,0.425,,NA,NA,NA,milk,0,13.278,15.157
4172,anger,decay,59,10.614,7,1,0,25,0.625,,NA,NA,NA,ascent,0,2.917,5.385
4172,want,ascent,40,6.099,24,1,1,8,0.2,need,0,NA,14.192,ascent,1,7.804,9.822
4172,need,faucet,71,7.98,26,1,0,33,0.825,,NA,NA,NA,sink,0,22.183,23.759
4172,replace,roach,38,6.821,3,1,1,6,0.15,remain,0,NA,13.093,skip,0,12.104,13.703
4172,prison,loaf,98,8.12,4,1,1,40,1,bread,0,NA,5.808,loaf,1,10.08,12.677
4172,climax,saucer,42,14.29,15,1,1,12,0.3,worm,0,NA,19.142,plot,0,10.061,11.682
4172,grip,beach,41,6.789,28,1,1,10,0.25,tie,0,NA,14.121,skip,0,11.874,13.67
4172,fee,chowder,58,8.354,27,1,1,22,0.55,food,0,NA,18.886,chowder,1,3.198,6.984
4172,link,crisis,52,8.844,5,1,1,18,0.45,sirloin,0,NA,9.525,crisis,1,4.156,6.655
4172,find,clown,89,7.74,20,1,0,37,0.925,,NA,NA,NA,skirt,0,8.832,10.642
4172,port,cinema,41,6.791,33,1,0,11,0.275,,NA,NA,NA,sink,0,17.517,19.089
4172,copy,bedroom,50,8.885,34,1,1,16,0.4,glove,0,NA,22.917,skip,0,18.383,20.479
4172,biology,temper,64,6.752,30,1,0,29,0.725,,NA,NA,NA,anger,0,4.089,6.629
4172,calf,annoy,46,5.481,6,1,1,14,0.35,run,0,NA,10.517,skip,0,7.711,9.608
4172,rock,milk,60,5.741,36,1,0,27,0.675,,NA,NA,NA,star,0,5.125,7.111
4172,bullet,walkway,67,7.786,19,1,1,30,0.75,walkway,1,NA,6.181,skip,0,5.247,7.231
4172,shrink,mafia,82,7.43,2,1,1,36,0.9,mafia,1,NA,4.455,mafia,1,11.22,13.42
4480,shrink,mafia,4,1.724,16,1,0,7,0.175,,NA,NA,NA,move,0,2.368,5.268
4480,fan,feature,8,4.397,23,1,1,22,0.55,art,0,NA,6.707,tire,0,1.987,3.319
4480,process,joker,8,15.558,38,1,1,20,0.5,higher,0,NA,8.641,red,0,1.979,2.968
4480,copy,bedroom,7,6.583,32,1,0,15,0.375,,NA,NA,NA,this,0,2.261,3.327
4480,caring,skirt,4,20.869,19,1,1,6,0.15,tiger,0,NA,8.759,equal,0,1.742,3.838
4480,replace,roach,8,2.567,31,1,0,19,0.475,,NA,NA,NA,binder,0,2.639,4.127
4480,collect,loyalty,5,4.364,15,1,0,11,0.275,,NA,NA,NA,fantasy,0,1.719,3.76
4480,remind,foam,6,9.205,40,1,1,12,0.3,love,0,NA,4.039,ever,0,2.215,3.673
4480,pea,bathtub,22,1.183,35,1,1,36,0.9,bathtub,1,NA,4.808,bathtub,1,3.85,8.984
4480,calf,annoy,8,1.797,6,1,0,21,0.525,,NA,NA,NA,annoy,1,1.89,3.823
4480,plant,worm,18,1.669,5,1,0,35,0.875,,NA,NA,NA,wanted,0,2.476,5.655
4480,chicken,beet,14,1.532,13,1,1,32,0.8,tire,0,NA,6.079,hidden,0,3.943,5.951
4480,smother,surgery,11,1.958,14,1,1,26,0.65,surgery,1,NA,5.016,surgery,1,1.417,3.799
4480,bleach,ruin,5,3.661,11,1,1,8,0.2,ruin,1,NA,3.072,ruin,1,1.187,2.605
4480,bacon,feud,8,1.853,37,1,1,18,0.45,sandwich,0,NA,6.222,disease,0,1.773,3.211
4480,prison,loaf,25,3.039,1,1,0,37,0.925,,NA,NA,NA,cell,0,1.515,2.456
4480,rock,milk,6,1.295,17,1,1,14,0.35,steady,0,NA,4.004,thank,0,3.39,6.671
4480,bullet,walkway,5,9.311,29,1,0,9,0.225,,NA,NA,NA,weather,0,1.654,7.447
4480,capital,figure,16,1.422,20,1,1,34,0.85,person,0,NA,5.368,surrender,0,1.918,4.934
4480,knock,otter,6,26.613,28,1,0,13,0.325,,NA,NA,NA,hollow,0,4.262,5.791
4480,banner,glide,11,9.389,39,1,1,28,0.7,brute,0,NA,3.654,brute,0,1.967,3.391
4480,risk,zero,56,2.878,25,1,1,40,1,zero,1,NA,16.647,legacy,0,2.427,4.127
4480,nerve,bumper,7,2.327,3,1,1,16,0.4,bumper,1,NA,5.287,agency,0,1.98,3.904
4480,biology,temper,9,2.261,27,1,0,23,0.575,,NA,NA,NA,dinner,0,4.16,6.168
4480,mill,feast,28,1.556,2,1,1,38,0.95,feast,1,NA,3.575,feast,1,1.394,2.583
4480,forest,knob,10,3.838,4,1,1,24,0.6,knob,1,NA,4.207,ginger,0,3.567,6.343
4480,want,ascent,2,2.582,30,1,0,3,0.075,,NA,NA,NA,always,0,1.814,3.359
4480,grip,beach,2,2.518,24,1,1,2,0.05,wheel,0,NA,4.831,tight,0,2.066,4.592
4480,date,laugh,29,3.101,36,1,0,39,0.975,,NA,NA,NA,ready,0,2.572,4.304
4480,port,cinema,13,1.237,10,1,1,30,0.75,tree,0,NA,3.299,movie,0,4.807,7.319
4480,fee,chowder,13,1.334,22,1,0,31,0.775,,NA,NA,NA,real,0,1.819,5.183
4480,find,clown,11,2.062,33,1,0,27,0.675,,NA,NA,NA,yell,0,2.346,3.464
4480,climax,saucer,2,4.367,34,1,1,4,0.1,port,0,NA,40.171,evasion,0,2.883,5.243
4480,need,faucet,1,4.196,7,1,0,1,0.025,,NA,NA,NA,union,0,3.208,6.917
4480,visit,glove,5,3.966,18,1,1,10,0.25,grass,0,NA,3.023,fandom,0,4.686,7.263
4480,pork,emperor,11,3.254,9,1,0,29,0.725,,NA,NA,NA,june,0,3.004,4.232
4480,bias,sirloin,4,2.389,12,1,0,5,0.125,,NA,NA,NA,question,0,3.191,10.216
4480,link,crisis,15,4.022,21,1,0,33,0.825,,NA,NA,NA,animal,0,2.963,5.383
4480,glue,force,11,1.686,8,1,0,25,0.625,,NA,NA,NA,extend,0,2.14,4.129
4480,anger,decay,8,1.348,26,1,0,17,0.425,,NA,NA,NA,hard,0,2.775,3.792
4524,rock,milk,83,7.742,18,1,0,39,0.975,,NA,NA,NA,milk,1,3.361,6.551
4524,pork,emperor,65,10.526,13,1,1,28,0.7,empower,0,NA,18.623,empire,0,6.353,10.951
4524,risk,zero,82,12.436,24,1,0,37,0.925,,NA,NA,NA,zero,1,2.146,14.545
4524,shrink,mafia,44,2.262,30,1,0,9,0.225,,NA,NA,NA,skip,0,9.121,18.271
4524,port,cinema,43,1.557,21,1,0,7,0.175,,NA,NA,NA,glide,0,30.481,32.864
4524,collect,loyalty,42,4.037,25,1,1,6,0.15,,0,NA,4.276,skip,0,11.213,14.896
4524,bleach,ruin,84,9.742,2,1,1,40,1,ruin,1,NA,8.512,ruin,1,2.081,5.502
4524,copy,bedroom,59,1.894,6,1,0,15,0.375,,NA,NA,NA,skip,0,36.795,39.318
4524,plant,worm,83,5.686,8,1,1,38,0.95,worm,1,NA,10.02,worm,1,1.698,5.096
4524,caring,skirt,64,2.246,27,1,0,27,0.675,,NA,NA,NA,reason,0,24.06,27.512
4524,chicken,beet,69,2.222,22,1,0,31,0.775,,NA,NA,NA,skip,0,42.235,47.88
4524,knock,otter,61,8.421,17,1,0,19,0.475,,NA,NA,NA,otter,1,15.216,18.119
4524,calf,annoy,61,10.773,31,1,1,18,0.45,,0,NA,16.883,annoy,1,5.482,10.559
4524,bullet,walkway,43,2.157,5,1,1,8,0.2,,0,NA,6.231,skip,0,2.273,5.16
4524,need,faucet,73,8.884,34,1,1,32,0.8,,0,NA,11.711,faucet,1,6.034,9.04
4524,date,laugh,80,9.55,16,1,0,35,0.875,,NA,NA,NA,laugh,1,1.976,4.424
4524,replace,roach,45,1.534,37,1,0,11,0.275,,NA,NA,NA,roach,1,6.749,10.056
4524,pea,bathtub,82,17.597,35,1,1,36,0.9,bathtub,1,NA,7.312,bathtub,1,1.649,5.287
4524,bias,sirloin,47,10.463,26,1,1,12,0.3,,0,NA,4.616,skip,0,1.825,5.144
4524,banner,glide,62,13.348,10,1,0,23,0.575,,NA,NA,NA,skip,0,3.098,7.104
4524,mill,feast,37,1.789,1,1,1,4,0.1,feast,1,NA,7.923,crisis,0,20.749,28.64
4524,grip,beach,61,1.91,15,1,0,21,0.525,,NA,NA,NA,skip,0,4.084,6.928
4524,want,ascent,62,8.454,36,1,0,25,0.625,,NA,NA,NA,ascent,1,7.668,11.887
4524,forest,knob,75,14.271,38,1,0,33,0.825,,NA,NA,NA,grip,0,3.569,12.744
4524,remind,foam,30,3.644,7,1,0,1,0.025,,NA,NA,NA,skip,0,14.185,16.936
4524,anger,decay,80,11.079,23,1,1,34,0.85,decay,1,NA,14.603,decay,1,6.472,8.871
4524,process,joker,34,1.462,28,1,1,2,0.05,,0,NA,8.958,skip,0,1.863,9.607
4524,capital,figure,54,3.309,12,1,0,13,0.325,,NA,NA,NA,idea,0,8.04,11.073
4524,visit,glove,36,2.093,3,1,0,3,0.075,,NA,NA,NA,skip,0,8.215,10.791
4524,nerve,bumper,40,1.837,40,1,0,5,0.125,,NA,NA,NA,skip,0,16.001,18.624
4524,find,clown,65,1.748,39,1,0,29,0.725,,NA,NA,NA,knob,0,2.376,5.271
4524,link,crisis,62,7.318,33,1,1,24,0.6,forest,0,NA,19.576,crisis,1,3.242,6.32
4524,prison,loaf,58,3.486,32,1,1,14,0.35,,0,NA,3.519,skip,0,7.249,10.175
4524,smother,surgery,60,2.253,29,1,0,17,0.425,,NA,NA,NA,skip,0,43.525,47.313
4524,glue,force,67,2.414,11,1,1,30,0.75,force,1,NA,12.87,force,1,33.613,36.519
4524,fan,feature,60,9.309,9,1,1,16,0.4,feature,1,NA,40.896,detail,0,4.418,96.896
4524,bacon,feud,62,2.982,20,1,1,26,0.65,,0,NA,15.159,skip,0,10.298,13.032
4524,biology,temper,61,10.31,19,1,1,20,0.5,,0,NA,4.45,temper,1,9.396,12.096
4524,climax,saucer,45,2.382,4,1,1,10,0.25,,0,NA,11.525,skip,0,2.458,4.889
4524,fee,chowder,62,14.242,14,1,1,22,0.55,,0,NA,9.144,chowder,1,33.572,36.711
4595,rock,milk,36,3.507,6,1,1,30,0.75,star,0,NA,23.1,hill ,0,6.061,8.797
4595,remind,foam,17,9.981,24,1,1,20,0.5,letter,0,NA,4.214,letter,0,1.698,3.355
4595,caring,skirt,26,1.55,13,1,1,26,0.65,fan,0,NA,8.07,love,0,1.659,3.438
4595,process,joker,80,2.582,31,1,1,36,0.9,time,0,NA,52.036,peas,0,1.301,2.839
4595,capital,figure,60,4.733,40,1,1,34,0.85,one,0,NA,5.032,home,0,1.396,2.895
4595,climax,saucer,1,1.891,2,1,0,1,0.025,,NA,NA,NA,store,0,2.398,4.169
4595,port,cinema,17,3.157,27,1,0,19,0.475,,NA,NA,NA,ancient,0,2.58,4.766
4595,banner,glide,32,2.016,30,1,0,29,0.725,,NA,NA,NA,era,0,2.109,3.704
4595,prison,loaf,14,1.878,15,1,0,15,0.375,,NA,NA,NA,bagel ,0,2.014,4.191
4595,link,crisis,43,1.502,39,1,0,31,0.775,,NA,NA,NA,internet,0,2.141,4.479
4595,pea,bathtub,22,1.726,1,1,1,22,0.55,bathtub,1,NA,5.771,bacon,0,2.622,4.513
4595,smother,surgery,75,32.265,26,1,0,35,0.875,,NA,NA,NA,ring,0,1.876,3.559
4595,biology,temper,57,3.478,33,1,0,33,0.825,,NA,NA,NA,book,0,2.573,4.312
4595,bacon,feud,24,1.636,32,1,0,25,0.625,,NA,NA,NA,pea,0,2.516,4.4
4595,fan,feature,15,4.254,4,1,1,16,0.4,feast ,0,NA,19.479,tall,0,2.22,3.944
4595,bias,sirloin,4,1.517,8,1,1,6,0.15,home,0,NA,5.743,castle,0,3.659,6.142
4595,mill,feast,7,1.879,5,1,0,9,0.225,,NA,NA,NA,home,0,2.645,4.344
4595,grip,beach,19,1.686,22,1,0,21,0.525,,NA,NA,NA,space,0,2.357,4.324
4595,nerve,bumper,28,10.748,36,1,1,28,0.7,brain,0,NA,5.173,sense,0,22.639,24.335
4595,risk,zero,93,1.913,34,1,1,38,0.95,passion,0,NA,6.155,fail,0,2.091,7.296
4595,fee,chowder,7,1.638,23,1,1,10,0.25,ticket,0,NA,5.187,moeny,0,1.673,4.24
4595,need,faucet,1,1.509,18,1,1,2,0.05,peas,0,NA,4.895,letter,0,3.752,5.487
4595,chicken,beet,4,1.431,3,1,0,7,0.175,,NA,NA,NA,laugh,0,1.416,3.239
4595,bleach,ruin,99,1.54,20,1,0,39,0.975,,NA,NA,NA,ruin,1,0.993,6.696
4595,shrink,mafia,5,1.582,7,1,1,8,0.2,dryer,0,NA,5.055,dryer,0,1.832,3.621
4595,copy,bedroom,8,1.712,25,1,0,11,0.275,,NA,NA,NA,lleter,0,1.481,3.505
4595,want,ascent,4,1.827,11,1,0,5,0.125,,NA,NA,NA,heart,0,2.048,4.295
4595,replace,roach,14,1.671,12,1,1,14,0.35,bacon,0,NA,8.951,sin,0,6.648,8.544
4595,pork,emperor,1,1.344,35,1,0,3,0.075,,NA,NA,NA,liar,0,5.425,8.123
4595,knock,otter,15,1.558,14,1,0,17,0.425,,NA,NA,NA,baby,0,2.788,4.407
4595,bullet,walkway,23,1.711,29,1,1,24,0.6,hurt,0,NA,5.836,hole,0,1.99,6.543
4595,plant,worm,14,1.854,21,1,0,13,0.325,,NA,NA,NA,green,0,4.013,5.984
4595,date,laugh,100,2.063,17,1,1,40,1,laugh,1,NA,4.941,couple,0,11.726,13.816
4595,forest,knob,15,7.722,19,1,1,18,0.45,olaf ,0,NA,8.471,laugh,0,1.467,3.358
4595,find,clown,85,1.967,28,1,0,37,0.925,,NA,NA,NA,lost,0,2.509,4.472
4595,collect,loyalty,23,5.397,16,1,0,23,0.575,,NA,NA,NA,paper,0,2.012,3.511
4595,calf,annoy,10,2.421,38,1,1,12,0.3,bacon,0,NA,6.63,moon,0,4.444,8.095
4595,anger,decay,3,1.885,37,1,1,4,0.1,red,0,NA,4.56,seeds,0,2.213,4.232
4595,visit,glove,47,5.947,10,1,1,32,0.8,parents,0,NA,4.481,people,0,3.476,5.312
4595,glue,force,27,2.752,9,1,0,27,0.675,,NA,NA,NA,risk,0,2.996,5.087
4659,grip,beach,72,2.957,10,1,0,27,0.675,,NA,NA,NA,stone,0,3.08,6.365
4659,mill,feast,70,2.896,6,1,0,21,0.525,,NA,NA,NA, creek,0,2.701,5.399
4659,forest,knob,73,2.858,18,1,0,31,0.775,,NA,NA,NA, font,0,2.361,7.153
4659,glue,force,74,12.677,36,1,0,35,0.875,,NA,NA,NA, ,0,6.914,8.374
4659,bullet,walkway,63,3.115,3,1,0,7,0.175,,NA,NA,NA, hole,0,2.136,5.16
4659,fee,chowder,71,3.354,8,1,1,26,0.65,test,0,NA,9.655,   gate,0,2.401,16.617
4659,remind,foam,70,5.742,12,1,0,23,0.575,,NA,NA,NA,ask,0,3.995,8.095
4659,need,faucet,63,2.405,28,1,1,6,0.15,harp,0,NA,12.184,call,0,5.683,8.231
4659,calf,annoy,62,3.44,33,1,1,4,0.1,wilt,0,NA,7.757,ring,0,2.976,5.378
4659,capital,figure,68,6.747,1,1,1,14,0.35,building,0,NA,16.363,car,0,7.117,9.297
4659,plant,worm,59,2.172,16,1,1,2,0.05,worm,1,NA,10.698,worm,1,3.475,8.884
4659,knock,otter,73,2.897,11,1,1,28,0.7,wood,0,NA,5.243, down,0,2.14,5.74
4659,copy,bedroom,67,3.773,7,1,0,13,0.325,,NA,NA,NA,mark,0,3.211,5.924
4659,prison,loaf,73,2.781,40,1,1,30,0.75,park,0,NA,7.229,game,0,4.616,21.439
4659,find,clown,76,3.004,5,1,1,38,0.95,gas,0,NA,8.72,fair,0,2.907,13.101
4659,visit,glove,71,8.071,26,1,1,24,0.6,took,0,NA,10.718,clod,0,3.609,9.22
4659,nerve,bumper,77,5.242,22,1,0,39,0.975,,NA,NA,NA,steam,0,2.917,9.926
4659,anger,decay,75,2.364,24,1,1,36,0.9,storm,0,NA,6.774,fill,0,2.704,7.567
4659,rock,milk,67,9.636,25,1,1,12,0.3,cloud,0,NA,5.837,fame,0,5.643,9.748
4659,risk,zero,74,1.709,27,1,1,34,0.85,kill,0,NA,5.807,dart,0,2.8,21.072
4659,caring,skirt,70,1.987,13,1,1,20,0.5,plan,0,NA,5.517,hand,0,2.618,7.016
4659,shrink,mafia,68,3.409,9,1,0,15,0.375,,NA,NA,NA,comb,0,4.579,10.399
4659,process,joker,69,2.668,2,1,1,18,0.45,meet,0,NA,9.204,street,0,2.604,5.586
4659,biology,temper,68,9.603,32,1,0,17,0.425,,NA,NA,NA,wand,0,2.904,6.377
4659,climax,saucer,75,20.9,35,1,0,37,0.925,,NA,NA,NA,heal,0,3.084,7.026
4659,smother,surgery,69,2.085,37,1,0,19,0.475,,NA,NA,NA,bolt,0,4.332,14.154
4659,link,crisis,63,3.789,39,1,1,8,0.2,miss,0,NA,9.559,crab,0,3.648,16.164
4659,want,ascent,66,2.755,15,1,0,11,0.275,,NA,NA,NA,find,0,2.99,6.814
4659,bleach,ruin,64,3.268,21,1,0,9,0.225,,NA,NA,NA,fool,0,4.094,7.327
4659,chicken,beet,79,2.052,31,1,1,40,1,sand,0,NA,6.088,film,0,3.38,8.557
4659,port,cinema,70,2.987,19,1,1,22,0.55,hand,0,NA,9.481,hole,0,3.246,5.57
4659,pea,bathtub,62,2.5,4,1,0,3,0.075,,NA,NA,NA,sign,0,2.089,5.036
4659,fan,feature,68,3.64,34,1,1,16,0.4,shot,0,NA,8.96,seal,0,2.37,7.31
4659,pork,emperor,74,1.908,29,1,0,33,0.825,,NA,NA,NA,runt,0,2.382,5.117
4659,banner,glide,73,1.918,30,1,1,32,0.8,sky,0,NA,7.742,class,0,3.404,6.802
4659,date,laugh,71,2.125,23,1,0,25,0.625,,NA,NA,NA,call,0,3.08,8.552
4659,bacon,feud,62,5.568,20,1,0,5,0.125,,NA,NA,NA,junk,0,4.051,12.484
4659,bias,sirloin,73,2.165,14,1,0,29,0.725,,NA,NA,NA,style,0,2.824,5.598
4659,collect,loyalty,65,6.429,38,1,1,10,0.25,dull,0,NA,6.984,car,0,2.198,5.071
4659,replace,roach,55,3.218,17,1,0,1,0.025,,NA,NA,NA,real,0,3.644,7.774
4857,fan,feature,36,19.951,13,1,0,19,0.475,,NA,NA,NA,skip,0,8.62,11.963
4857,pork,emperor,11,8.918,33,1,1,6,0.15,loin,0,NA,17.013,emperor,1,11.953,16.492
4857,bullet,walkway,49,10.596,21,1,0,23,0.575,,NA,NA,NA,walkway,1,6.842,9.647
4857,risk,zero,82,8.229,14,1,0,39,0.975,,NA,NA,NA,skip,0,20.591,22.75
4857,collect,loyalty,69,8.51,16,1,1,34,0.85,loyalty,1,NA,10.662,loyalty,1,10.808,13.72
4857,capital,figure,67,7.716,26,1,1,32,0.8,figure,1,NA,24.337,figure,1,7.761,9.099
4857,fee,chowder,60,7.224,20,1,0,27,0.675,,NA,NA,NA,skip,0,10.121,11.155
4857,rock,milk,22,12.376,38,1,0,13,0.325,,NA,NA,NA,skip,0,11.582,12.575
4857,shrink,mafia,20,6.808,6,1,0,11,0.275,,NA,NA,NA,skip,0,10.373,11.561
4857,bacon,feud,13,8.881,25,1,0,7,0.175,,NA,NA,NA,skip,0,9.575,10.69
4857,want,ascent,2,11.736,7,1,0,1,0.025,,NA,NA,NA,skip,0,11.811,12.876
4857,visit,glove,14,12.289,35,1,0,9,0.225,,NA,NA,NA,glove,1,3.608,4.782
4857,need,faucet,75,7.183,31,1,1,38,0.95,faucet,1,NA,18.021,faucet,1,8.151,10.094
4857,forest,knob,25,7.825,19,1,1,14,0.35,tree,0,NA,14.108,knob,1,5.07,6.238
4857,prison,loaf,32,8.022,17,1,0,17,0.425,,NA,NA,NA,loaf,1,8.556,9.89
4857,replace,roach,55,8.517,39,1,1,26,0.65,roach,1,NA,12.896,roach,1,7.059,8.421
4857,bias,sirloin,7,7.628,32,1,1,4,0.1,person,0,NA,14.106,skip,0,3.235,4.409
4857,knock,otter,4,8.048,18,1,1,2,0.05,door,0,NA,16.942,skip,0,9.77,10.754
4857,chicken,beet,65,9.334,30,1,0,31,0.775,,NA,NA,NA,beet,1,1.944,3.051
4857,plant,worm,65,6.782,34,1,1,30,0.75,worm,1,NA,9.265,worm,1,4.05,4.845
4857,anger,decay,70,8.272,12,1,0,35,0.875,,NA,NA,NA,decay,1,6.32,7.468
4857,link,crisis,61,5.865,40,1,1,28,0.7,tree,0,NA,14.154,skip,0,5.905,8.01
4857,nerve,bumper,54,8.629,28,1,1,24,0.6,ending,0,NA,16.968,skip,0,5.991,6.926
4857,pea,bathtub,69,7.899,37,1,0,33,0.825,,NA,NA,NA,bathtub,1,5.639,8.977
4857,process,joker,20,8.472,10,1,1,12,0.3,joker,1,NA,15.897,skip,0,8.204,10.322
4857,calf,annoy,41,8.66,8,1,0,21,0.525,,NA,NA,NA,skip,0,15.572,17.22
4857,smother,surgery,11,8.454,24,1,0,5,0.125,,NA,NA,NA,skip,0,3.188,4.207
4857,glue,force,62,7.25,9,1,0,29,0.725,,NA,NA,NA,force,1,3.958,5.488
4857,find,clown,72,13.602,1,1,0,37,0.925,,NA,NA,NA,skip,0,10.026,10.953
4857,biology,temper,5,16.969,3,1,0,3,0.075,,NA,NA,NA,temper,1,12.855,14.2
4857,mill,feast,14,8.279,4,1,1,8,0.2,rest,0,NA,15.71,skip,0,1.942,3.715
4857,date,laugh,71,7.872,5,1,1,36,0.9,laugh,1,NA,41.962,laugh,1,4.926,6.186
4857,remind,foam,29,13.685,11,1,1,16,0.4,need,0,NA,25.472,skip,0,10.053,10.976
4857,bleach,ruin,89,11.613,27,1,1,40,1,ruin,1,NA,7.356,ruin,1,1.817,2.647
4857,caring,skirt,25,7.491,22,1,0,15,0.375,,NA,NA,NA,skirt,1,4.52,5.673
4857,climax,saucer,33,10.99,23,1,1,18,0.45,up,0,NA,30.565,skip,0,1.716,2.697
4857,banner,glide,39,10.537,36,1,1,20,0.5,glide,1,NA,19.467,glide,1,3.097,4.242
4857,port,cinema,45,15.175,29,1,1,22,0.55,cinema,1,NA,21.756,cinema,1,1.967,3.864
4857,copy,bedroom,19,7.288,2,1,1,10,0.25,bedroom,1,NA,43.086,bedroom,1,3.698,5.42
4857,grip,beach,55,7.712,15,1,0,25,0.625,,NA,NA,NA,skip,0,4.853,5.817
5025,pea,bathtub,58,2.685,1,1,0,21,0.525,,NA,NA,NA,SKIP,0,18.357,20.514
5025,caring,skirt,31,5.508,16,1,0,15,0.375,,NA,NA,NA,SKIP,0,5.625,7.019
5025,rock,milk,76,1.603,37,1,1,32,0.8,milk,1,NA,7.864,milk,1,2.555,3.817
5025,bullet,walkway,60,3.414,31,1,1,22,0.55,price,0,NA,19.077,force,0,1.776,3.19
5025,want,ascent,5,2.314,17,1,0,3,0.075,,NA,NA,NA,SKIP,0,4.698,6.099
5025,chicken,beet,65,2.747,8,1,0,27,0.675,,NA,NA,NA,SKIP,0,9.627,10.716
5025,risk,zero,100,2.931,39,1,1,40,1,zero,1,NA,6.614,zero,1,1.824,3.644
5025,visit,glove,56,5.79,15,1,1,20,0.5,flight,0,NA,18.869,SKIP,0,7.639,8.82
5025,port,cinema,83,3.953,25,1,1,34,0.85,visit,0,NA,4.702,loyalty,0,7.416,9.568
5025,need,faucet,28,3.136,12,1,0,13,0.325,,NA,NA,NA,SKIP,0,7.503,8.991
5025,fee,chowder,30,34.454,35,1,1,14,0.35,price,0,NA,3.768,loyalty,0,5.501,9.594
5025,prison,loaf,23,2.752,23,1,0,9,0.225,,NA,NA,NA,SKIP,0,33.617,80.179
5025,collect,loyalty,72,1.775,10,1,1,30,0.75,loyalty,1,NA,6.437,quiet,0,10.921,12.645
5025,bias,sirloin,1,3.437,30,1,0,1,0.025,,NA,NA,NA,SKIP,0,16.612,17.766
5025,shrink,mafia,13,2.088,3,1,0,5,0.125,,NA,NA,NA,SKIP,0,52.152,54.449
5025,smother,surgery,61,2.559,21,1,1,24,0.6,hug,0,NA,8.556,listen,0,33.503,38.35
5025,capital,figure,75,1.868,32,1,0,31,0.775,,NA,NA,NA,general,0,28.137,50.357
5025,grip,beach,27,2.707,28,1,1,12,0.3,carry,0,NA,6.923,force,0,17.291,18.614
5025,anger,decay,90,2.261,14,1,0,37,0.925,,NA,NA,NA,SKIP,0,7.614,8.745
5025,copy,bedroom,14,3.232,7,1,1,6,0.15,portion,0,NA,29.643,quiet,0,2.603,3.961
5025,glue,force,67,2.425,2,1,1,28,0.7,force,1,NA,6.28,force,1,1.653,2.955
5025,find,clown,79,2.123,24,1,0,33,0.825,,NA,NA,NA,aquire,0,3.018,5.035
5025,banner,glide,44,2.113,18,1,1,18,0.45,quick,0,NA,17.31,copy,0,2.02,3.244
5025,nerve,bumper,89,2.774,9,1,1,36,0.9,skin,0,NA,7.656,thought,0,3.792,5.234
5025,knock,otter,15,2.058,13,1,0,7,0.175,,NA,NA,NA,SKIP,0,1.974,3.343
5025,bleach,ruin,92,2.755,19,1,1,38,0.95,ruin,1,NA,3.948,ruin,1,2.294,3.506
5025,calf,annoy,37,5.403,11,1,0,17,0.425,,NA,NA,NA,SKIP,0,8.256,9.202
5025,bacon,feud,60,2.612,27,1,0,23,0.575,,NA,NA,NA,SKIP,0,1.388,2.504
5025,mill,feast,64,4.097,40,1,1,26,0.65,power,0,NA,34.98,flour,0,2.718,5.401
5025,remind,foam,11,2.608,6,1,1,4,0.1,quiet,0,NA,22.442,thought,0,2.318,3.861
5025,pork,emperor,2,1.968,4,1,1,2,0.05,emperor,1,NA,37.512,SKIP,0,1.515,3.363
5025,forest,knob,31,5.472,33,1,1,16,0.4,worm,0,NA,5.942,SKIP,0,4.07,5.081
5025,biology,temper,23,4.344,5,1,0,11,0.275,,NA,NA,NA,SKIP,0,6.871,7.815
5025,process,joker,22,2.608,36,1,1,8,0.2,quick,0,NA,16.217,still,0,4.992,8.395
5025,replace,roach,23,12.146,38,1,1,10,0.25,hinged,0,NA,11.982,SKIP,0,2.284,3.201
5025,plant,worm,100,2.234,22,1,0,39,0.975,,NA,NA,NA,SKIP,0,1.686,3.077
5025,fan,feature,71,2.963,29,1,0,29,0.725,,NA,NA,NA,SKIP,0,7.58,8.561
5025,climax,saucer,85,3.957,26,1,0,35,0.875,,NA,NA,NA,pace,0,15.37,16.522
5025,date,laugh,61,2.271,20,1,0,25,0.625,,NA,NA,NA,SKIP,0,6.458,8.086
5025,link,crisis,56,1.961,34,1,0,19,0.475,,NA,NA,NA,process,0,5.209,6.582
5264,collect,loyalty,1,2.876,36,1,0,5,0.125,,NA,NA,NA,skip,0,5.862,12.233
5264,copy,bedroom,1,14.188,30,1,0,17,0.425,,NA,NA,NA,skip,0,4.113,6.796
5264,port,cinema,1,2.374,20,1,0,1,0.025,,NA,NA,NA,skip,0,2.359,3.477
5264,want,ascent,1,3.459,16,1,1,6,0.15,skip,0,NA,2.972,skip,0,2.338,3.709
5264,smother,surgery,8,3.643,22,1,1,28,0.7,skip,0,NA,4.975,skip,0,3.157,4.23
5264,bias,sirloin,1,2.236,5,1,1,10,0.25,skip,0,NA,12.39,skip,0,3.18,4.284
5264,mill,feast,1,2.612,24,1,0,21,0.525,,NA,NA,NA,skip,0,11.353,12.503
5264,knock,otter,1,3.084,35,1,1,2,0.05,skip,0,NA,3.325,skip,0,4.094,5.415
5264,bullet,walkway,1,3.045,26,1,0,3,0.075,,NA,NA,NA,trail,0,10.037,23.107
5264,fan,feature,1,3.172,27,1,0,15,0.375,,NA,NA,NA,skip,0,6.427,7.733
5264,prison,loaf,29,3.229,10,1,0,39,0.975,,NA,NA,NA,loaf,1,3.591,6.052
5264,chicken,beet,23,4.772,8,1,0,37,0.925,,NA,NA,NA,skip,0,6.989,8.077
5264,pork,emperor,22,6.486,13,1,1,36,0.9,feud ,0,NA,18.111,skip,0,43.232,44.448
5264,replace,roach,1,2.525,23,1,0,7,0.175,,NA,NA,NA,skip,0,4.319,5.427
5264,bacon,feud,10,3.181,3,1,0,31,0.775,,NA,NA,NA,skip,0,10.941,12.343
5264,grip,beach,1,14.037,9,1,1,16,0.4,skip,0,NA,4.925,skip,0,2.88,4.025
5264,bleach,ruin,1,2.581,32,1,1,8,0.2,skip,0,NA,9.129,skip,0,8.041,9.675
5264,forest,knob,10,3.605,19,1,1,32,0.8,knob ,0,NA,7.085,table,0,12.099,16.288
5264,calf,annoy,8,2.772,33,1,0,29,0.725,,NA,NA,NA,skip,0,1.994,3.147
5264,banner,glide,5,4.796,6,1,1,26,0.65,skip,0,NA,16.719,mash,0,20.326,24.145
5264,rock,milk,19,3.893,34,1,0,35,0.875,,NA,NA,NA,skip,0,7.745,8.807
5264,process,joker,1,2.55,28,1,0,19,0.475,,NA,NA,NA,skip,0,1.873,2.891
5264,caring,skirt,1,2.708,40,1,0,11,0.275,,NA,NA,NA,skip,0,1.72,2.903
5264,plant,worm,2,2.756,18,1,0,23,0.575,,NA,NA,NA,skip,0,2.78,3.929
5264,anger,decay,25,4.516,29,1,1,38,0.95,skip,0,NA,3.761,skip,0,1.949,2.988
5264,date,laugh,3,2.805,31,1,0,25,0.625,,NA,NA,NA,skip,0,2.81,3.794
5264,nerve,bumper,11,4.933,38,1,0,33,0.825,,NA,NA,NA,skip,0,1.69,2.684
5264,visit,glove,1,2.461,15,1,0,9,0.225,,NA,NA,NA,skip,0,1.927,3.086
5264,link,crisis,1,3.093,25,1,1,12,0.3,skip,0,NA,3.283,skip,0,1.853,4.269
5264,remind,foam,1,2.629,7,1,1,4,0.1,skip,0,NA,3.151,skip,0,3.221,4.495
5264,shrink,mafia,1,3.117,11,1,1,20,0.5,mafia,1,NA,7.1,skip,0,5.773,7.067
5264,climax,saucer,1,4.789,37,1,0,13,0.325,,NA,NA,NA,skip,0,2.41,3.527
5264,glue,force,9,2.684,17,1,1,30,0.75,force ,0,NA,7.783,skip,0,5.454,6.61
5264,risk,zero,50,5.093,4,1,1,40,1,skip,0,NA,12.764,skip,0,1.936,3.062
5264,capital,figure,6,3.546,1,1,0,27,0.675,,NA,NA,NA,skip,0,2.111,3.122
5264,pea,bathtub,2,3.365,2,1,1,24,0.6,bathtub,1,NA,6.632,skip,0,19.202,20.215
5264,find,clown,15,3.211,12,1,1,34,0.85,skip,0,NA,5.095,skip,0,1.921,2.829
5264,need,faucet,1,2.5,39,1,1,22,0.55,faucet ,0,NA,18.48,skip,0,1.617,2.708
5264,fee,chowder,1,2.451,21,1,1,14,0.35,skip,0,NA,3.421,skip,0,2.73,3.979
5264,biology,temper,1,2.012,14,1,1,18,0.45,temperature,0,NA,13.599,skip,0,3.427,5.071
5324,remind,foam,8,1.153,29,1,0,5,0.125,,NA,NA,NA, ,0,6.452,6.787
5324,chicken,beet,38,1.564,11,1,1,28,0.7,beet,1,NA,2.569,beet,1,2.284,3.27
5324,bullet,walkway,61,1.864,7,1,1,34,0.85,wand,0,NA,4.808,panacea,0,7.75,9.757
5324,need,faucet,21,2.528,40,1,0,21,0.525,,NA,NA,NA,torn,0,4.13,5.776
5324,capital,figure,4,1.289,12,1,0,1,0.025,,NA,NA,NA,green,0,1.915,2.839
5324,anger,decay,26,1.358,18,1,0,23,0.575,,NA,NA,NA,funny,0,3.526,4.586
5324,date,laugh,33,0.912,17,1,1,24,0.6,flower,0,NA,3.841,follow,0,1.573,2.623
5324,nerve,bumper,56,1.167,5,1,1,30,0.75,bumper,1,NA,2.662,annoy,0,3.785,5.378
5324,pork,emperor,20,2.777,21,1,1,20,0.5,pestilence,0,NA,5.57,under,0,2.235,3.236
5324,caring,skirt,15,1.313,9,1,1,16,0.4,nurture,0,NA,3.415,red,0,2.528,3.328
5324,knock,otter,37,1.034,37,1,0,27,0.675,,NA,NA,NA,clown,0,3.908,4.99
5324,shrink,mafia,7,1.423,4,1,1,4,0.1,mafia,1,NA,4.179,mafia,1,1.48,2.629
5324,glue,force,80,1.069,10,1,0,39,0.975,,NA,NA,NA,force,1,1.366,3.033
5324,biology,temper,11,1.097,28,1,0,9,0.225,,NA,NA,NA,queer,0,4.018,5.91
5324,forest,knob,12,1.197,31,1,1,10,0.25,knob,1,NA,5.025,inside,0,2.623,3.75
5324,bacon,feud,58,1.038,27,1,1,32,0.8,feud,1,NA,2.92,feud,1,1.894,2.89
5324,collect,loyalty,66,1.122,25,1,1,36,0.9,suffer,0,NA,4.109,hot,0,2.054,2.954
5324,prison,loaf,58,7.488,2,1,0,33,0.825,,NA,NA,NA,ice,0,2.162,2.928
5324,process,joker,14,4.202,38,1,0,13,0.325,,NA,NA,NA,server,0,1.414,2.637
5324,fee,chowder,17,1.378,23,1,0,17,0.425,,NA,NA,NA,ignore,0,3.885,5.082
5324,find,clown,68,1.148,3,1,0,37,0.925,,NA,NA,NA,death,0,2.127,3.237
5324,bleach,ruin,14,0.819,33,1,1,14,0.35,bridge,0,NA,9.604,put,0,3.555,4.427
5324,mill,feast,35,1.695,16,1,1,26,0.65,grain,0,NA,4.514,ran,0,2.896,3.649
5324,port,cinema,62,1.86,30,1,0,35,0.875,,NA,NA,NA,fun,0,2.867,3.55
5324,risk,zero,93,2.194,8,1,1,40,1,heavy,0,NA,5.302,tantrum,0,5.361,7.932
5324,calf,annoy,6,2.272,22,1,0,3,0.075,,NA,NA,NA,have,0,2.863,3.591
5324,rock,milk,8,3.124,19,1,0,7,0.175,,NA,NA,NA,pin,0,3.44,4.489
5324,fan,feature,58,1.094,35,1,0,31,0.775,,NA,NA,NA,few,0,2.655,3.405
5324,bias,sirloin,8,1.004,32,1,1,6,0.15,apple,0,NA,6.334,side,0,2.723,3.458
5324,climax,saucer,18,3.059,14,1,0,19,0.475,,NA,NA,NA,anger,0,2.754,3.864
5324,pea,bathtub,5,1.348,15,1,1,2,0.05,cancer,0,NA,8.702,can,0,3.366,4.112
5324,plant,worm,68,3.499,24,1,1,38,0.95,worm,1,NA,4.551,worm,1,2.581,3.388
5324,visit,glove,13,2.345,36,1,0,11,0.275,,NA,NA,NA,dust,0,2.551,3.962
5324,want,ascent,15,1.559,26,1,0,15,0.375,,NA,NA,NA,won,0,2.767,3.528
5324,banner,glide,18,1.066,20,1,1,18,0.45,grab,0,NA,4.736,cream,0,2.91,4.079
5324,copy,bedroom,11,1.846,34,1,1,8,0.2,master,0,NA,2.837,got,0,2.363,3.295
5324,smother,surgery,56,1.301,6,1,0,29,0.725,,NA,NA,NA,macaroni,0,5.449,7.096
5324,grip,beach,33,1.655,13,1,0,25,0.625,,NA,NA,NA,yes,0,4.016,5.264
5324,replace,roach,13,0.915,39,1,1,12,0.3,control,0,NA,3.219,crude,0,4.503,7.823
5324,link,crisis,24,1.232,1,1,1,22,0.55,bacon,0,NA,13.526,mice,0,3.081,4.469
5512,biology,temper,40,1.661,9,1,1,14,0.35,milk,0,NA,4.335,student,0,3.353,5.381
5512,anger,decay,64,9.26,23,1,0,25,0.625,,NA,NA,NA,decay,1,10.713,12.655
5512,knock,otter,38,4.812,16,1,1,10,0.25,otter,1,NA,8.748,feast,0,4.57,5.967
5512,banner,glide,45,6.498,22,1,0,15,0.375,,NA,NA,NA,glue,0,8.398,9.422
5512,pea,bathtub,65,4.212,32,1,1,28,0.7,bathroom,0,NA,11.36,chowder,0,4.56,6.382
5512,remind,foam,63,4.699,37,1,0,23,0.575,,NA,NA,NA,collect,0,6.746,8.455
5512,bacon,feud,76,5.446,26,1,0,35,0.875,,NA,NA,NA,feud,1,8.955,9.887
5512,need,faucet,61,3.041,13,1,1,18,0.45,fan,0,NA,5.2,water,0,3.768,4.92
5512,collect,loyalty,34,4.302,40,1,1,8,0.2,loyalty,1,NA,8.042,loyal,0,3.8,5.279
5512,plant,worm,65,4.568,21,1,1,26,0.65,foce,0,NA,14.053,work,0,2.385,3.215
5512,find,clown,88,5.137,33,1,1,38,0.95,replace,0,NA,7.169,worm,0,5.16,6.118
5512,bleach,ruin,75,4.594,36,1,1,34,0.85,ruin,1,NA,3.15,ruin,1,5.753,16.999
5512,fee,chowder,24,2.197,12,1,1,4,0.1,climax,0,NA,10.803,collect,0,2.088,3.591
5512,mill,feast,61,5.017,17,1,0,19,0.475,,NA,NA,NA,guide,0,4.392,6.127
5512,chicken,beet,81,2.002,30,1,0,37,0.925,,NA,NA,NA,otter,0,6.154,7.256
5512,replace,roach,67,1.723,18,1,1,30,0.75,skirt,0,NA,5.657,glue,0,8.433,9.39
5512,link,crisis,62,3.509,24,1,0,21,0.525,,NA,NA,NA,crisis,1,4.401,5.751
5512,calf,annoy,34,1.568,28,1,0,9,0.225,,NA,NA,NA,chicken,0,4.563,6.279
5512,glue,force,80,4.409,34,1,1,36,0.9,force,1,NA,12.359,force,1,6.697,7.846
5512,bullet,walkway,23,2.706,35,1,0,3,0.075,,NA,NA,NA,trial,0,3.25,4.289
5512,process,joker,62,3.683,8,1,1,22,0.55,clown,0,NA,5.343,chicken,0,4.075,5.31
5512,grip,beach,39,2.353,3,1,0,13,0.325,,NA,NA,NA,hand,0,2.026,2.768
5512,capital,figure,61,5.913,7,1,1,20,0.5,figure,1,NA,11.101,murder,0,2.706,3.886
5512,prison,loaf,66,3.06,5,1,0,29,0.725,,NA,NA,NA,mafia,0,2.331,3.415
5512,smother,surgery,69,8.425,27,1,0,33,0.825,,NA,NA,NA,beet,0,4.314,5.303
5512,bias,sirloin,26,5.068,14,1,0,5,0.125,,NA,NA,NA,link,0,3.986,4.936
5512,risk,zero,98,5.147,10,1,1,40,1,roach,0,NA,6.416,grove,0,10.857,11.992
5512,rock,milk,94,7.616,15,1,0,39,0.975,,NA,NA,NA,scissors,0,3.083,4.784
5512,port,cinema,18,3.551,4,1,1,2,0.05,report,0,NA,7.37,zero,0,4.032,5.063
5512,pork,emperor,60,2.171,2,1,1,16,0.4,milk,0,NA,7.793,chicken,0,2.699,4.295
5512,fan,feature,30,7.093,20,1,1,6,0.15,need,0,NA,8.602,leaf,0,5.825,6.782
5512,want,ascent,34,4.941,39,1,0,7,0.175,,NA,NA,NA,have,0,3.616,4.416
5512,climax,saucer,16,5.089,6,1,0,1,0.025,,NA,NA,NA,shower,0,11.953,13.215
5512,shrink,mafia,64,8.258,25,1,1,24,0.6,mafia,1,NA,5.99,mafia,1,6.137,7.064
5512,nerve,bumper,61,11.52,19,1,0,17,0.425,,NA,NA,NA,order,0,6.152,7.159
5512,copy,bedroom,39,6.156,31,1,0,11,0.275,,NA,NA,NA,paper,0,2.017,4.384
5512,caring,skirt,68,3.237,1,1,0,31,0.775,,NA,NA,NA,love,0,4.217,5.039
5512,visit,glove,39,5.338,38,1,1,12,0.3,grove,0,NA,4.053,chicken,0,4.864,6.255
5512,date,laugh,65,10.762,11,1,0,27,0.675,,NA,NA,NA,worm,0,5.458,6.455
5512,forest,knob,69,1.822,29,1,1,32,0.8,king,0,NA,9.111,report,0,4.169,5.495
5533,link,crisis,100,9.972,5,1,1,28,0.7,skip,0,NA,13.734,crisis,1,20.429,25.381
5533,fan,feature,100,9.1,15,1,1,36,0.9,feature,1,NA,16.775,feature,1,32.049,33.67
5533,nerve,bumper,48,8.438,21,1,0,9,0.225,,NA,NA,NA,bumper,1,17.048,19.239
5533,remind,foam,50,11.525,32,1,0,15,0.375,,NA,NA,NA,skip,0,17.48,23.336
5533,knock,otter,75,5.636,17,1,0,19,0.475,,NA,NA,NA,skip,0,3.482,4.824
5533,caring,skirt,100,12.372,30,1,0,25,0.625,,NA,NA,NA,skip,0,2.176,3.439
5533,need,faucet,72,6.885,29,1,1,18,0.45,faucet,1,NA,17.147,skip,0,16.25,17.159
5533,visit,glove,100,11.893,8,1,1,26,0.65,glove,1,NA,14.647,glove,1,14.08,15.992
5533,replace,roach,85,6.499,38,1,1,22,0.55,roach,1,NA,17.55,skip,0,13.8,14.823
5533,glue,force,100,6.397,40,1,0,37,0.925,,NA,NA,NA,force,1,12.784,14.359
5533,want,ascent,49,13.987,36,1,0,11,0.275,,NA,NA,NA,skip,0,13.288,14.359
5533,find,clown,100,5.475,2,1,0,33,0.825,,NA,NA,NA,skip,0,10.846,11.694
5533,collect,loyalty,100,11.95,25,1,1,24,0.6,skip,0,NA,19.534,skip,0,27.439,28.846
5533,bias,sirloin,12,8.049,1,1,0,1,0.025,,NA,NA,NA,skip,0,11.976,17.199
5533,shrink,mafia,77,5.261,14,1,1,20,0.5,mafia,1,NA,20.863,skip,0,8.576,10.584
5533,anger,decay,53,5.821,22,1,1,16,0.4,decay,1,NA,19.55,decay,1,15.367,47.959
5533,climax,saucer,100,11.908,3,1,0,29,0.725,,NA,NA,NA,saucer,1,12.119,15.294
5533,port,cinema,100,12.789,19,1,0,27,0.675,,NA,NA,NA,cinema,1,9.04,10.743
5533,banner,glide,100,7.445,4,1,1,32,0.8,skip,0,NA,226.272,skip,0,11.929,12.847
5533,copy,bedroom,100,6.541,28,1,0,31,0.775,,NA,NA,NA,bedroom,1,13.24,23.303
5533,bullet,walkway,47,10.213,12,1,0,7,0.175,,NA,NA,NA,skip,0,12.264,14.55
5533,pea,bathtub,21,5.901,7,1,1,2,0.05,skip,0,NA,22.318,fee,0,10.521,11.848
5533,process,joker,100,7.269,34,1,1,38,0.95,skip,0,NA,5.199,joker,1,15.103,16.679
5533,smother,surgery,47,10.125,33,1,1,8,0.2,skip,0,NA,9.776,skip,0,29.752,30.495
5533,fee,chowder,27,6.309,27,1,0,5,0.125,,NA,NA,NA,pea,0,9.023,21.503
5533,prison,loaf,72,7.357,18,1,0,17,0.425,,NA,NA,NA,skip,0,39.095,40.958
5533,bleach,ruin,50,22.427,16,1,0,13,0.325,,NA,NA,NA,ruin,1,15.056,17.607
5533,pork,emperor,21,8.166,9,1,0,3,0.075,,NA,NA,NA,skip,0,22.472,23.686
5533,mill,feast,32,8.452,6,1,1,6,0.15,rock,0,NA,42.462,rock,0,16.224,18.527
5533,plant,worm,100,4.668,23,1,1,34,0.85,worm,1,NA,19.55,worm,1,13.433,15.072
5533,bacon,feud,81,6.102,39,1,0,21,0.525,,NA,NA,NA,feud,1,15.313,17.84
5533,biology,temper,100,27.797,31,1,0,23,0.575,,NA,NA,NA,temper,1,15.313,17.696
5533,calf,annoy,23,7.462,11,1,1,4,0.1,skip,0,NA,19.751,skip,0,4.04,5.872
5533,rock,milk,49,14.014,37,1,1,12,0.3,milk,1,NA,15.291,milk,1,2.304,6.464
5533,chicken,beet,50,13.261,10,1,1,14,0.35,beer,0,NA,31.981,beer,0,20.2,23.67
5533,capital,figure,100,9.668,13,1,1,30,0.75,figure,1,NA,18.187,figure,1,11.36,21.999
5533,grip,beach,49,14.334,26,1,1,10,0.25,beach,1,NA,18.063,beach,1,12.183,21.288
5533,date,laugh,100,6.084,35,1,0,39,0.975,,NA,NA,NA,skip,0,11.631,13.662
5533,forest,knob,100,6.006,20,1,1,40,1,knob,1,NA,17.469,knob,1,10.512,19.12
5533,risk,zero,100,5.942,24,1,0,35,0.875,,NA,NA,NA,skip,0,3.656,6.199
5552,knock,otter,63,2.809,14,1,0,15,0.375,,NA,NA,NA,link,0,15.11,17.918
5552,pea,bathtub,65,3.951,8,1,0,19,0.475,,NA,NA,NA,glue,0,5.419,7.923
5552,banner,glide,49,5.493,18,1,0,9,0.225,,NA,NA,NA,find,0,7.432,9.803
5552,smother,surgery,38,2.177,30,1,1,6,0.15,milk,0,NA,8.015,crisis,0,4.011,18.296
5552,pork,emperor,30,2.594,21,1,1,2,0.05,bumer,0,NA,5.616,clown,0,4.737,9.941
5552,forest,knob,82,6.413,5,1,0,37,0.925,,NA,NA,NA,calf,0,5.628,20.719
5552,copy,bedroom,80,3.683,24,1,1,36,0.9,date,0,NA,7.819,skip,0,2.805,4.916
5552,glue,force,100,32.127,13,1,1,40,1,force,1,NA,10.466,force,1,4.896,7.336
5552,rock,milk,16,2.946,29,1,0,1,0.025,,NA,NA,NA,milk,1,3.388,6.884
5552,replace,roach,68,2.178,39,1,1,22,0.55,wand,0,NA,6.752,find,0,9.302,11.609
5552,want,ascent,69,2.811,38,1,0,25,0.625,,NA,NA,NA,beach,0,15.238,18.645
5552,calf,annoy,59,43.955,31,1,1,12,0.3,crisis,0,NA,29.814,link,0,8.24,10.665
5552,anger,decay,77,5.224,1,1,0,31,0.775,,NA,NA,NA,clown,0,13.965,16.24
5552,process,joker,89,1.957,16,1,0,39,0.975,,NA,NA,NA,find,0,3.957,6.088
5552,remind,foam,75,2.874,7,1,0,27,0.675,,NA,NA,NA,skip,0,4.676,7.129
5552,bullet,walkway,48,3.142,33,1,1,8,0.2,find,0,NA,11.12,glue,0,9.154,13.747
5552,fee,chowder,33,1.802,37,1,0,3,0.075,,NA,NA,NA,link,0,6.784,9.197
5552,caring,skirt,34,4.479,11,1,0,5,0.125,,NA,NA,NA,skip,0,2.601,4.869
5552,chicken,beet,80,2.502,6,1,0,35,0.875,,NA,NA,NA,bullet,0,5.284,8.719
5552,bias,sirloin,75,3.868,17,1,1,28,0.7,find,0,NA,12.59,skip,0,3.093,5.193
5552,bacon,feud,77,6.758,20,1,1,32,0.8,never,0,NA,5.684,find,0,4.197,6.282
5552,grip,beach,60,2.041,32,1,0,13,0.325,,NA,NA,NA,beach,1,6.388,33.613
5552,mill,feast,70,2.503,35,1,1,26,0.65,cinema,0,NA,5.398,rock,0,3.488,5.617
5552,climax,saucer,64,1.75,2,1,1,16,0.4,skip,0,NA,10.296,skip,0,2.596,4.574
5552,bleach,ruin,33,2.686,15,1,1,4,0.1,grip,0,NA,8.74,grip,0,5.684,18.752
5552,shrink,mafia,64,2.063,12,1,0,17,0.425,,NA,NA,NA,skip,0,2.485,4.525
5552,risk,zero,76,2.401,4,1,1,30,0.75,link,0,NA,13.42,skip,0,2.134,4.419
5552,prison,loaf,69,2.189,28,1,0,23,0.575,,NA,NA,NA,crisis,0,2.984,5.403
5552,link,crisis,80,23.507,26,1,1,34,0.85,crisis,1,NA,18.187,crisis,1,10.18,12.6
5552,find,clown,76,20.183,27,1,0,29,0.725,,NA,NA,NA,clown,1,6.809,9.33
5552,biology,temper,65,1.808,9,1,1,20,0.5,find,0,NA,15.208,find,0,6.757,8.884
5552,need,faucet,68,3.076,25,1,0,21,0.525,,NA,NA,NA,force,0,21.466,23.847
5552,plant,worm,69,1.894,10,1,1,24,0.6,calf,0,NA,12.361,calf,0,8.466,11.104
5552,fan,feature,61,1.856,36,1,1,14,0.35,port,0,NA,4.904,glue,0,6.64,9.075
5552,capital,figure,49,3.186,3,1,1,10,0.25,loyal,0,NA,7.713,skip,0,2.523,4.784
5552,port,cinema,40,2.046,34,1,0,7,0.175,,NA,NA,NA,skip,0,2.285,4.219
5552,visit,glove,65,2.335,40,1,1,18,0.45,glue,0,NA,10.379,find,0,2.671,4.562
5552,collect,loyalty,83,2.546,22,1,1,38,0.95,clown,0,NA,11.902,bullet,0,2.508,5.05
5552,date,laugh,50,3.465,23,1,0,11,0.275,,NA,NA,NA,skip,0,1.978,4.059
5552,nerve,bumper,77,2.144,19,1,0,33,0.825,,NA,NA,NA,skip,0,3.485,5.441
5553,process,joker,4,10.468,1,1,1,4,0.1,skip,0,NA,35.785,package,0,6.68,20.086
5553,pea,bathtub,10,6.341,26,1,0,27,0.675,,NA,NA,NA,skip,0,10.845,12.434
5553,bacon,feud,5,4.837,32,1,0,15,0.375,,NA,NA,NA,stick,0,55.388,63.261
5553,mill,feast,5,7.902,35,1,1,24,0.6,duel,0,NA,20.288,rust,0,4.637,13.37
5553,shrink,mafia,5,6.728,20,1,0,17,0.425,,NA,NA,NA,bench,0,10.067,13.137
5553,nerve,bumper,1,7.421,28,1,0,3,0.075,,NA,NA,NA,skip,0,7.838,17.07
5553,forest,knob,5,9.567,30,1,0,7,0.175,,NA,NA,NA,machine,0,16.674,19.217
5553,need,faucet,5,4.909,23,1,1,26,0.65,skip,0,NA,17.57,basic,0,6.503,9.375
5553,date,laugh,50,5.943,31,1,0,39,0.975,,NA,NA,NA,tablet,0,13.216,15.839
5553,link,crisis,5,6.04,24,1,1,8,0.2,project,0,NA,34.503,skip,0,16.006,17.43
5553,anger,decay,5,5.253,14,1,1,20,0.5,skip,0,NA,30.517,skip,0,13.16,14.792
5553,capital,figure,20,7.03,34,1,1,30,0.75,skip,0,NA,17.37,book,0,10.289,12.535
5553,bias,sirloin,5,10.251,12,1,0,25,0.625,,NA,NA,NA,forward,0,13.142,14.943
5553,caring,skirt,1,7.653,8,1,1,2,0.05,nope,0,NA,13.216,boat,0,11.287,12.975
5553,risk,zero,50,6.23,15,1,1,36,0.9,skip,0,NA,24.039,beach,0,6.262,7.807
5553,knock,otter,5,8.549,10,1,0,9,0.225,,NA,NA,NA,later,0,15.12,17.177
5553,visit,glove,5,5.213,9,1,0,21,0.525,,NA,NA,NA,bench,0,9.831,11.887
5553,biology,temper,1,11.855,4,1,0,1,0.025,,NA,NA,NA,skip,0,6.759,8.111
5553,calf,annoy,10,6.764,16,1,0,29,0.725,,NA,NA,NA,branch,0,13.534,15.199
5553,fan,feature,25,9.303,2,1,0,33,0.825,,NA,NA,NA,dump,0,16.789,18.484
5553,climax,saucer,10,6.223,27,1,1,28,0.7,bathroom,0,NA,20.47,process,0,11.358,13.662
5553,pork,emperor,5,6.223,18,1,0,13,0.325,,NA,NA,NA,meal,0,13.768,16.086
5553,want,ascent,20,5.318,11,1,0,31,0.775,,NA,NA,NA,skip,0,3.639,11.264
5553,replace,roach,5,7.189,36,1,1,14,0.35,skip,0,NA,5.455,elope,0,27.142,28.344
5553,glue,force,20,5.414,37,1,1,32,0.8,tight,0,NA,16.032,sleep,0,10.09,11.783
5553,port,cinema,5,8.06,7,1,1,10,0.25,beach,0,NA,11.479,block,0,9.893,11.589
5553,remind,foam,5,11.884,3,1,1,12,0.3,nothing,0,NA,46.386,honey,0,21.537,25.24
5553,smother,surgery,40,7.478,33,1,0,35,0.875,,NA,NA,NA,skip,0,8.351,9.902
5553,copy,bedroom,5,8.553,25,1,0,5,0.125,,NA,NA,NA,arrow,0,14.296,16.927
5553,bullet,walkway,5,5.844,13,1,0,23,0.575,,NA,NA,NA,skip,0,6.528,10.2
5553,plant,worm,50,4.598,39,1,1,40,1,immune,0,NA,9.888,office,0,16.646,18.525
5553,chicken,beet,50,6.414,22,1,0,37,0.925,,NA,NA,NA,card,0,9.656,19.063
5553,fee,chowder,5,5.893,38,1,1,16,0.4,pastel,0,NA,12.566,project,0,8.703,10.829
5553,bleach,ruin,50,6.807,6,1,1,38,0.95,ruin,1,NA,10.559,ruin,1,9.96,11.296
5553,collect,loyalty,5,7.985,5,1,1,6,0.15,catch,0,NA,12.887,speak,0,9.255,11.175
5553,banner,glide,5,5.23,19,1,1,22,0.55,glide,1,NA,3.67,glide,1,2.926,6.44
5553,prison,loaf,5,8.069,40,1,0,11,0.275,,NA,NA,NA,cover,0,7.263,8.84
5553,grip,beach,5,5.613,29,1,1,18,0.45,tight,0,NA,11.724,steam,0,4.6,6.294
5553,find,clown,5,6.187,21,1,0,19,0.475,,NA,NA,NA,skip,0,13.616,14.912
5553,rock,milk,40,4.782,17,1,1,34,0.85,milk,1,NA,5.453,milk,1,3.35,4.661
5647,grip,beach,30,6.782,5,1,1,16,0.4,ocean,0,NA,6.189,key,0,13.608,15.297
5647,bacon,feud,100,6.565,20,1,1,40,1,feud,1,NA,4.403,feud,1,5.91,11.232
5647,nerve,bumper,45,5.584,37,1,1,18,0.45,beach,0,NA,23.424,crisis,0,10.779,13.019
5647,replace,roach,11,12.537,12,1,1,10,0.25,power,0,NA,5.827,feature,0,9.413,15.502
5647,bleach,ruin,79,7.701,10,1,0,25,0.625,,NA,NA,NA,ruin,1,15.04,17.099
5647,link,crisis,82,7.099,39,1,1,26,0.65,crisis,1,NA,6.931,crisis,1,2.47,4.421
5647,want,ascent,5,2.819,40,1,1,4,0.1,butter,0,NA,5.859,ruin,0,7.053,9.012
5647,climax,saucer,99,8.466,25,1,1,36,0.9,sauce,0,NA,8.608,sauce,0,3.5,5.559
5647,pork,emperor,100,14.816,27,1,0,39,0.975,,NA,NA,NA,emperor,1,10.194,17.489
5647,knock,otter,37,6.655,1,1,0,17,0.425,,NA,NA,NA,otter,1,3.493,5.371
5647,risk,zero,100,7.004,6,1,1,38,0.95,ruin,0,NA,11.808,zero,1,2.13,3.75
5647,shrink,mafia,77,4.107,7,1,1,24,0.6,mafia,1,NA,5.429,mafia,1,2.97,4.899
5647,port,cinema,76,4.092,11,1,1,22,0.55,movie,0,NA,13.117,ruin,0,13.509,15.591
5647,prison,loaf,99,3.939,34,1,0,37,0.925,,NA,NA,NA,milk,0,12.24,15.189
5647,remind,foam,89,3.337,29,1,1,28,0.7,memory,0,NA,14.672,foam,1,5.699,8.359
5647,visit,glove,2,3.964,24,1,0,1,0.025,,NA,NA,NA,bedroom,0,8.672,11.041
5647,bias,sirloin,17,10.046,22,1,0,13,0.325,,NA,NA,NA,meats,0,3.581,11.209
5647,biology,temper,20,1.667,32,1,0,15,0.375,,NA,NA,NA,angry,0,5.168,7.409
5647,mill,feast,8,41.181,9,1,1,8,0.2,feast,1,NA,5.017,hunger,0,2.249,7.841
5647,find,clown,70,8.557,4,1,1,20,0.5,focus,0,NA,7.029,clown,1,10.86,13.069
5647,need,faucet,7,8.705,13,1,0,5,0.125,,NA,NA,NA,crisis,0,9.61,12.12
5647,capital,figure,76,5.535,28,1,0,23,0.575,,NA,NA,NA,figure,1,5.949,7.932
5647,forest,knob,19,5.222,38,1,1,14,0.35,future,0,NA,13.881,nob,0,5.59,7.279
5647,banner,glide,7,3.644,17,1,0,7,0.175,,NA,NA,NA,bump,0,6.371,11.11
5647,bullet,walkway,93,7.804,23,1,1,32,0.8,walkway,1,NA,8.818,walkway,1,1.853,5.542
5647,pea,bathtub,95,11.406,35,1,0,33,0.825,,NA,NA,NA,pod,0,9.539,14.148
5647,glue,force,86,3.742,18,1,0,27,0.675,,NA,NA,NA,force,1,1.239,3.549
5647,process,joker,14,10.626,14,1,0,11,0.275,,NA,NA,NA,joker,1,12.781,14.804
5647,plant,worm,97,11.924,19,1,0,35,0.875,,NA,NA,NA,worm,1,1.224,4.678
5647,rock,milk,10,5.083,36,1,0,9,0.225,,NA,NA,NA,milk,1,4.448,5.637
5647,fee,chowder,95,7.613,15,1,1,34,0.85,chowder,1,NA,4.984,chowder,1,1.369,3.638
5647,collect,loyalty,74,7.112,16,1,0,21,0.525,,NA,NA,NA,secret,0,1.709,3.565
5647,smother,surgery,14,15.252,30,1,1,12,0.3,surgery,1,NA,6.262,surgery,1,3.489,5.777
5647,caring,skirt,2,1.742,21,1,1,2,0.05,otter,0,NA,6.675,faucet,0,5.02,7.389
5647,anger,decay,91,16.63,26,1,1,30,0.75,decay,1,NA,11.214,decay,1,4.919,6.494
5647,chicken,beet,90,32.667,31,1,0,29,0.725,,NA,NA,NA,beef,0,2.69,4.822
5647,copy,bedroom,3,6.698,33,1,0,3,0.075,,NA,NA,NA,zero,0,9.224,10.811
5647,fan,feature,7,8.264,2,1,1,6,0.15,favorite,0,NA,8.747,favorite,0,2.361,5.24
5647,date,laugh,93,4.914,3,1,0,31,0.775,,NA,NA,NA,laugh,1,3.681,5.581
5647,calf,annoy,68,3.687,8,1,0,19,0.475,,NA,NA,NA,annoy,1,1.301,3.08
5667,caring,skirt,66,4.11,12,1,1,26,0.65,skirt,1,NA,15.847,skirt,1,54.343,58.688
5667,plant,worm,72,4.262,3,1,0,35,0.875,,NA,NA,NA,worm,1,15.883,17.927
5667,pork,emperor,70,4.216,34,1,1,32,0.8,cinema,0,NA,21.083,i dont remember,0,33.511,37.299
5667,process,joker,22,7.913,9,1,1,4,0.1,joker,1,NA,15.417,joker,1,8.509,10.571
5667,replace,roach,34,4.485,6,1,0,7,0.175,,NA,NA,NA,roach,1,9.456,14.302
5667,visit,glove,35,3.102,25,1,1,8,0.2,i don't know,0,NA,24.918,i don't remember,0,8.267,11.224
5667,bias,sirloin,67,3.833,24,1,1,30,0.75,sirloin,1,NA,4.575,sirloin,1,2.452,5.105
5667,shrink,mafia,59,7.358,4,1,0,17,0.425,,NA,NA,NA,i don't remember,0,26.611,29.759
5667,risk,zero,70,5.044,2,1,0,33,0.825,,NA,NA,NA,zero,1,19.738,22.047
5667,bullet,walkway,32,27.164,40,1,1,6,0.15,walkaway,0,NA,27.873,walkaway,0,4.938,9.616
5667,chicken,beet,65,6.369,18,1,1,24,0.6,beet,1,NA,15.777,beet,1,3.596,5.162
5667,biology,temper,64,4.619,8,1,0,23,0.575,,NA,NA,NA,i don't remember,0,33.033,35.851
5667,knock,otter,59,4.421,39,1,0,15,0.375,,NA,NA,NA,other,0,13.146,16.707
5667,date,laugh,90,4.349,14,1,1,40,1,laugh,1,NA,4.171,laugh,1,1.997,4.175
5667,banner,glide,64,5.133,10,1,0,21,0.525,,NA,NA,NA,i dont remember,0,24.825,30.184
5667,find,clown,71,4.053,23,1,1,34,0.85,feature,0,NA,10.744,clown,1,5.028,7.44
5667,rock,milk,82,3.241,16,1,0,37,0.925,,NA,NA,NA,milk,1,3.059,18.543
5667,climax,saucer,59,5.325,11,1,1,14,0.35,i don't know,0,NA,20.656,saucer,1,4.634,6.911
5667,nerve,bumper,26,5.412,5,1,0,5,0.125,,NA,NA,NA,bumper,1,11.913,14.311
5667,forest,knob,65,4.702,26,1,0,25,0.625,,NA,NA,NA,knob,1,8.136,10.323
5667,prison,loaf,67,3.898,13,1,0,29,0.725,,NA,NA,NA,loaf,1,11.691,14.355
5667,want,ascent,17,5.294,19,1,1,2,0.05,i don't know,0,NA,13.207,i don't remember,0,9.87,12.66
5667,remind,foam,63,4.104,27,1,1,20,0.5,foam,1,NA,8.518,foam,1,6.768,8.748
5667,glue,force,62,4.314,36,1,0,19,0.475,,NA,NA,NA,i don't remember,0,11.754,18.535
5667,anger,decay,56,3.918,17,1,0,11,0.275,,NA,NA,NA,delay,0,12.192,16.339
5667,fee,chowder,59,3.698,7,1,1,16,0.4,chowder,1,NA,20.081,fair,0,10.192,12.411
5667,capital,figure,52,6.937,28,1,0,9,0.225,,NA,NA,NA,figure,1,5.186,7.055
5667,copy,bedroom,69,7.309,37,1,0,31,0.775,,NA,NA,NA,i don't remember,0,17.855,22.939
5667,fan,feature,73,5.532,35,1,1,36,0.9,feature,1,NA,4.012,feature,1,3.909,6.379
5667,bleach,ruin,58,9.721,33,1,0,13,0.325,,NA,NA,NA,grip,0,4.143,6.316
5667,smother,surgery,55,6.731,15,1,1,10,0.25,surgery,1,NA,5.683,surgery,1,5.284,12.499
5667,mill,feast,67,3.854,29,1,0,27,0.675,,NA,NA,NA,feast,1,6.417,8.787
5667,need,faucet,58,41.827,38,1,1,12,0.3,i don't know,0,NA,23.192,water,0,10.519,18.759
5667,link,crisis,62,5.285,21,1,1,18,0.45,i don't know,0,NA,18.063,crisis,1,14.427,16.868
5667,grip,beach,67,6.088,20,1,1,28,0.7,beach,1,NA,14.236,bleach,0,4.772,8.068
5667,calf,annoy,17,6.393,1,1,0,3,0.075,,NA,NA,NA,annoy,1,29.093,38.027
5667,pea,bathtub,82,4.269,22,1,1,38,0.95,bathtub,1,NA,6.051,bathroom,0,2.41,11.04
5667,port,cinema,14,6.831,31,1,0,1,0.025,,NA,NA,NA,cinema,1,5.955,10.124
5667,collect,loyalty,64,4.524,30,1,1,22,0.55,loyalty,1,NA,22.133,loyalty,1,5.649,10.359
5667,bacon,feud,84,5.063,32,1,0,39,0.975,,NA,NA,NA,fued,0,5.75,7.879
5745,calf,annoy,82,1.923,21,1,1,30,0.75,cow,0,NA,3.422,born,0,3.967,5.324
5745,want,ascent,40,1.811,4,1,0,19,0.475,,NA,NA,NA,desire,0,1.361,2.742
5745,bacon,feud,75,5.326,8,1,0,29,0.725,,NA,NA,NA,pan,0,10.185,11.369
5745,pork,emperor,44,1.28,6,1,0,21,0.525,,NA,NA,NA,emperor,1,1.489,3.135
5745,capital,figure,38,1.791,38,1,0,15,0.375,,NA,NA,NA,city,0,1.464,2.695
5745,risk,zero,100,1.453,13,1,1,40,1,strategy,0,NA,97.75,strategy,0,1.65,4.649
5745,glue,force,48,1.822,28,1,1,22,0.55,connect,0,NA,6.153,carpet,0,1.297,2.57
5745,collect,loyalty,40,1.666,22,1,1,20,0.5,strategy,0,NA,5.79,strategy,0,1.238,6.693
5745,nerve,bumper,10,2.612,34,1,1,4,0.1,bone,0,NA,3.107,fire,0,1.088,2.183
5745,link,crisis,50,2.571,15,1,1,24,0.6,static,0,NA,3.315,static,0,1.048,2.339
5745,pea,bathtub,100,4.761,12,1,1,36,0.9,greens,0,NA,11.27,bowl,0,1.388,2.746
5745,fan,feature,25,2.063,2,1,0,9,0.225,,NA,NA,NA,ceiling,0,1.146,3.118
5745,caring,skirt,58,4.538,31,1,0,25,0.625,,NA,NA,NA,nurse,0,1.635,2.887
5745,mill,feast,30,25.093,39,1,0,11,0.275,,NA,NA,NA,windmill,0,1.322,3.106
5745,process,joker,40,2.622,32,1,1,18,0.45,machine,0,NA,7.624,plan,0,2.44,31.754
5745,bullet,walkway,65,2.47,1,1,1,26,0.65,NA,0,NA,8.608,gun,0,1.799,3.11
5745,chicken,beet,75,18.409,11,1,1,28,0.7,gas,0,NA,5.3,cook,0,17.033,18.402
