subn,word1,word2,jol,jolrt,trial,list,practice,jolrank,jolrankp,restudyresp,restudyacc,restudyrtfirst,restudyrt,response,testacc,rtfirst,rt
10,anger,decay,98,1.698644038,1,5,1,39,0.975,decay,1,3.286006656,5.158009289, ,0,13.59924031,15.09949257
10,forest,knob,22,0.998294023,2,5,0,8,0.2,,,,, ,0,1.448801919,2.913118641
10,remind,foam,2,1.432034655,3,5,1,1,0.025,     ,0,3.349375742,7.98406183, ,0,1.303188949,2.284994745
10,copy,bedroom,38,1.214977512,4,5,1,11,0.275,bedroom,1,3.558942814,8.383382389, ,0,2.692298021,6.044251171
10,banner,glide,82,4.015991091,5,5,1,15,0.375, ,0,2.259630561,3.879229061, ,0,2.055285017,4.399312541
10,risk,zero,92,1.81536701,6,5,0,24,0.6,,,,, ,0,8.19337873,13.11303647
10,chicken,beet,5,2.598864414,7,5,0,2,0.05,,,,, ,0,4.442343966,7.983819356
10,want,ascent,49,0.831734962,8,5,0,14,0.35,,,,,   ,0,2.202498444,23.85800746
10,smother,surgery,94,1.531758472,9,5,1,31,0.775,surgery,1,1.441390428,16.17481215,surgery ,0,3.291109514,20.50671342
10,calf,annoy,94,1.398587686,10,5,0,30,0.75,,,,,   ,0,10.66615991,13.78614537
10,glue,force,93,1.248538662,11,5,1,27,0.675,pressure,0,16.48293878,19.77855395,pressure,0,5.558331818,19.50206696
10,pea,bathtub,92,2.148823825,12,5,0,26,0.65,,,,, ,0,14.93412278,18.04639719
10,caring,skirt,10,1.04845726,13,5,1,5,0.125, ,0,3.951711125,9.255623968, ,0,3.75267884,8.804216737
10,rock,milk,97,1.96544939,14,5,0,38,0.95,,,,,house,0,8.070979431,16.87087846
10,shrink,mafia,82,1.498454549,15,5,0,16,0.4,,,,,  ,0,6.936973136,14.63281173
10,fee,chowder,7,1.631976538,16,5,1,3,0.075,  ,0,4.784443566,9.376339741, ,0,3.639059599,5.087064176
10,prison,loaf,37,4.049401497,17,5,0,10,0.25,,,,, ,0,6.209950668,8.745920039
10,collect,loyalty,92,1.84873123,18,5,1,25,0.625,  ,0,9.597930119,18.1977625,  ,0,10.35694535,12.07239579
10,bacon,feud,19,1.01508887,19,5,1,7,0.175,feud,1,8.587793041,9.931784964,emporer,0,11.7741349,14.13372501
10,plant,worm,94,1.248455592,20,5,0,32,0.8,,,,,seed,0,7.826947385,9.270473892
10,biology,temper,93,1.315119564,21,5,0,28,0.7,,,,, ,0,2.634891998,6.770841933
10,mill,feast,95,1.831889555,22,5,1,33,0.825,feast,1,5.184527469,10.92839995,feast,1,5.581422328,7.909372162
10,need,faucet,89,0.931729477,23,5,0,20,0.5,,,,, ,0,3.235847268,6.030162025
10,bias,sirloin,9,0.998477482,24,5,0,4,0.1,,,,, ,0,4.916122303,8.731853665
10,link,crisis,89,1.365211919,25,5,1,21,0.525,crisis,1,3.344802735,5.320776327, ,0,3.967245814,5.799261737
10,pork,emperor,41,0.881794923,26,5,1,13,0.325, emporer,0,7.633384234,15.65714732, ,0,6.191325078,9.055300092
10,climax,saucer,89,2.265418183,27,5,0,22,0.55,,,,, ,0,5.259973103,7.628005867
10,port,cinema,85,2.748986565,28,5,0,18,0.45,,,,,cinema,1,3.279269024,5.847257783
10,bleach,ruin,100,1.031728483,29,5,0,40,1,,,,,damage,0,5.223423045,14.38325281
10,fan,feature,90,1.081614607,30,5,1,23,0.575, ,0,2.75224553,11.66202599, ,0,26.84333041,32.07980375
10,knock,otter,40,0.881765095,31,5,0,12,0.3,,,,, ,0,8.039309321,20.04716022
10,capital,figure,86,1.732042577,32,5,1,19,0.475,attraction,0,22.18616898,27.75450702, ,0,12.00299276,12.97897822
10,replace,roach,97,2.198640671,33,5,0,36,0.9,,,,, ,0,0.927365267,1.535374733
10,visit,glove,13,3.599184184,34,5,0,6,0.15,,,,, ,0,0.61312868,0.877160977
10,date,laugh,97,1.54864569,35,5,1,37,0.925,laugh,1,2.633693099,4.081697035,laugh,1,2.043319442,3.923331091
10,grip,beach,95,3.732808807,36,5,1,35,0.875,beach,1,2.726501278,4.334438578,beach,1,4.36447263,6.364457877
10,bullet,walkway,93,1.815379197,37,5,1,29,0.725,walkway,1,20.45878472,24.79476057,walkway,1,2.32605655,7.277523276
10,process,joker,85,1.465090009,38,5,1,17,0.425,joker,1,5.3680488,6.984041623, ,0,2.379387343,3.363411005
10,find,clown,95,1.631984235,39,5,0,34,0.85,,,,, ,0,1.007047139,1.149707444
10,nerve,bumper,25,6.78347816,40,5,1,9,0.225,    ,0,6.390668474,8.974633892, ,0,0.96792705,1.447899056
11,forest,knob,76,0.682006279,1,5,0,33,0.825,,,,,skip,0,3.452260738,6.242158975
11,fee,chowder,54,0.748684342,2,5,0,9,0.225,,,,,skip,0,3.209960639,4.761957347
11,replace,roach,70,0.615035384,3,5,1,30,0.75,boy,0,4.87154728,5.623584914,skip,0,2.89089951,4.218913014
11,calf,annoy,66,0.615333347,4,5,0,29,0.725,,,,,beef,0,3.064613488,4.523117025
11,anger,decay,61,0.748696209,5,5,0,23,0.575,,,,,upset,0,8.419185511,13.82715522
11,risk,zero,54,1.448621029,6,5,1,10,0.25,enter,0,6.450353322,18.5764249,take,0,6.589229631,8.509321541
11,collect,loyalty,63,0.848505308,7,5,0,27,0.675,,,,,money,0,1.646334055,6.862301753
11,visit,glove,45,0.78192154,8,5,0,3,0.075,,,,,home,0,1.467115611,2.801558583
11,date,laugh,100,6.300097311,9,5,1,38,0.95,laugh,1,1.724660597,3.340677432,laugh,1,0.68087344,3.02272669
11,grip,beach,46,1.081898255,10,5,1,4,0.1,show,0,7.238929808,9.710932148,grab,0,1.641964673,2.47760014
11,prison,loaf,70,0.782071003,11,5,0,31,0.775,,,,,loaf,1,1.662356086,3.222371507
11,rock,milk,56,0.615076438,12,5,0,15,0.375,,,,,grill,0,2.331744302,3.771657036
11,biology,temper,81,1.148851189,13,5,1,34,0.85,yemper,0,1.944809406,6.496777248,temper,1,2.032041816,9.45596299
11,smother,surgery,43,0.865110756,14,5,0,1,0.025,,,,,surgey,0,1.900658214,3.652798162
11,fan,feature,63,2.082191407,15,5,1,26,0.65,audience,0,3.62533998,6.745319183,hot,0,1.600435174,2.208481086
11,process,joker,60,0.681959131,16,5,1,22,0.55,work,0,6.323412551,7.643440378,time,0,16.04148812,20.69742533
11,banner,glide,43,0.648477532,17,5,1,2,0.05,guide,0,2.018945216,8.115881484,skip,0,2.026657947,7.527780843
11,chicken,beet,56,8.350563468,18,5,0,13,0.325,,,,,hot,0,2.600629219,3.456651609
11,link,crisis,82,0.982042971,19,5,0,35,0.875,,,,,ski[,0,1.499416903,2.427444134
11,need,faucet,59,0.865196393,20,5,0,21,0.525,,,,,food,0,4.185778451,5.585779157
11,nerve,bumper,56,0.781776568,21,5,1,14,0.35,annoy,0,1.581022967,3.372990912,skip,0,1.171356892,3.419382443
11,port,cinema,55,0.865115888,22,5,1,12,0.3,sea,0,3.722419938,7.138394885,ship,0,4.673940738,6.537963239
11,shrink,mafia,62,2.43221187,23,5,0,25,0.625,,,,,small,0,1.37062741,2.618344414
11,climax,saucer,61,0.698442379,24,5,1,24,0.6,hall,0,7.962246843,17.29813152,skip,0,0.969589446,2.633606301
11,remind,foam,46,1.065519245,25,5,0,5,0.125,,,,,you,0,1.846053925,2.390133593
11,knock,otter,58,0.865092154,26,5,0,19,0.475,,,,,door,0,1.999107713,2.895248686
11,pork,emperor,56,2.348919377,27,5,1,16,0.4,beet,0,2.158424508,7.878389535,beef,0,1.650136056,3.066143076
11,copy,bedroom,72,0.831789526,28,5,1,32,0.8,       paper,0,3.477926328,23.70759393,machine,0,1.610343983,9.706351721
11,glue,force,100,1.732240223,29,5,0,39,0.975,,,,,together,0,3.198447832,5.734539257
11,bacon,feud,58,0.915182409,30,5,1,18,0.45,met,0,7.518638272,9.214670964,food,0,3.888175181,4.792215232
11,bias,sirloin,59,9.467693577,31,5,1,20,0.5,conformation,0,1.977511938,7.809481396,like,0,4.199665986,10.14362801
11,pea,bathtub,51,3.799465141,32,5,1,6,0.15, bed,0,3.849133308,15.93709315,small,0,4.410999374,5.707001211
11,bleach,ruin,100,1.082006664,33,5,0,37,0.925,,,,,ruin,1,1.546357854,2.938382184
11,mill,feast,57,0.948522884,34,5,0,17,0.425,,,,,skip,0,3.492076545,5.012153317
11,capital,figure,53,1.465217177,35,5,1,8,0.2,statue,0,7.559036856,9.55908208,money,0,13.50623574,15.24220292
11,plant,worm,100,1.465315963,36,5,1,40,1,worm,1,7.008981562,9.42496581,worm,1,2.462179168,3.318231386
11,bullet,walkway,85,0.715128974,37,5,1,36,0.9,gun,0,5.429237688,7.446026277,skip,0,3.960402613,4.952453821
11,want,ascent,54,0.765364843,38,5,0,11,0.275,,,,,skip,0,5.127307052,8.319253892
11,caring,skirt,53,1.015438933,39,5,0,7,0.175,,,,,like,0,1.530696972,2.826718374
11,find,clown,66,1.615194468,40,5,1,28,0.7,item,0,3.572678387,7.788674951,me,0,1.438898568,2.583043923
12,banner,glide,60,0.948364921,1,5,0,6,0.15,,,,,slide,0,3.168101464,4.189885309
12,grip,beach,85,3.965937545,2,5,0,28,0.7,,,,,choker,0,4.237663898,5.013691438
12,want,ascent,63,16.71961194,3,5,0,8,0.2,,,,,saclion,0,3.900076687,9.515970404
12,mill,feast,65,3.282433694,4,5,1,11,0.275, ,0,2.178008256,2.354037913,stone,0,2.654469523,3.630494111
12,fee,chowder,72,1.382163284,5,5,0,18,0.45,,,,, ,0,5.5818303,6.703002154
12,replace,roach,64,14.50236685,6,5,1,9,0.225, ,0,1.182658239,1.326703468,bell,0,3.40674905,4.222705566
12,risk,zero,77,1.081835913,7,5,0,20,0.5,,,,,zero,1,2.145660118,2.953705762
12,bleach,ruin,67,4.115996191,8,5,0,16,0.4,,,,, ,0,2.451839899,2.651890511
12,prison,loaf,100,1.448487601,9,5,1,33,0.825,loaf,1,7.23584374,9.017758649,guard,0,3.290378243,4.682382249
12,bias,sirloin,85,8.200408549,10,5,1,27,0.675,sirlion,0,3.796013998,7.116387485,h ,0,5.113336034,6.697359825
12,visit,glove,78,3.68254903,11,5,1,21,0.525, ,0,1.655781961,1.775827081, ,0,3.971008008,4.195048144
12,biology,temper,59,11.65150691,12,5,0,4,0.1,,,,,pest,0,3.511976961,4.16800749
12,rock,milk,100,1.131790994,13,5,0,32,0.8,,,,,milk,1,0.983224717,1.687029986
12,process,joker,66,2.282041117,14,5,1,13,0.325,joker,1,2.121313939,3.081302855,beet,0,9.722696105,10.33069563
12,pork,emperor,100,0.798376836,15,5,0,34,0.85,,,,,kin,0,2.865177441,3.345219688
12,caring,skirt,100,1.665264423,16,5,1,35,0.875,skirt,1,1.466296285,2.682198148,skirt,1,2.8405766,3.352547147
12,anger,decay,75,4.46615003,17,5,1,19,0.475, ,0,1.990019119,2.134115344,problem,0,4.202058078,6.228693967
12,find,clown,91,4.065986906,18,5,0,30,0.75,,,,, ,0,4.56931563,4.737474506
12,plant,worm,65,2.248743289,19,5,0,10,0.25,,,,,water,0,3.420298403,4.220317391
12,forest,knob,45,0.83172085,20,5,1,3,0.075,knob,1,1.795222109,2.595232116,knob,1,1.463064261,2.108426899
12,port,cinema,65,1.331862132,21,5,0,12,0.3,,,,,cinema,1,3.351835762,3.976326398
12,collect,loyalty,100,1.182040508,22,5,0,36,0.9,,,,,coin,0,2.210361527,2.714380468
12,nerve,bumper,81,14.48562781,23,5,1,25,0.625,bumper,1,3.0245306,4.208545859,bumper,1,2.124532171,3.188553627
12,bacon,feud,82,1.181852238,24,5,0,26,0.65,,,,, ,0,2.84748839,4.279487764
12,fan,feature,81,2.215379069,25,5,0,24,0.6,,,,,feature,1,3.929797063,4.881843354
12,calf,annoy,60,7.933775752,26,5,1,5,0.125,annoy,1,3.161090247,4.057055783,annoy,1,2.18304376,2.871024719
12,glue,force,100,0.84860454,27,5,1,39,0.975,force,1,1.371958211,2.027979438,force,1,1.412681322,1.996715697
12,smother,surgery,100,0.865056524,28,5,0,40,1,,,,,surgery,1,1.567939045,2.381728371
12,copy,bedroom,80,17.93664727,29,5,0,22,0.55,,,,, ,0,2.921052927,3.081103038
12,pea,bathtub,80,13.36860271,30,5,1,23,0.575, ,0,2.374249526,2.739009212, ,0,1.342702577,1.493374143
12,chicken,beet,66,5.816511705,31,5,0,14,0.35,,,,,beet,1,1.492840444,2.260841327
12,need,faucet,99,2.182125823,32,5,1,31,0.775, ,0,3.498602407,3.666700023,glue,0,1.641202735,2.049193983
12,climax,saucer,67,13.16860085,33,5,1,15,0.375, ,0,1.541745447,1.701801331,warm,0,4.056455371,4.728477953
12,shrink,mafia,4,2.165579543,34,5,1,1,0.025, ,0,1.787932175,3.035854389, ,0,5.659242025,5.827286078
12,remind,foam,61,1.048437053,35,5,1,7,0.175,foam,1,2.9686054,3.608636819,laugh,0,2.17156217,3.075606963
12,date,laugh,100,0.815061672,36,5,1,37,0.925,laugh,1,1.08207101,1.866090246,laugh,1,1.033300715,1.705388085
12,bullet,walkway,100,0.764993051,37,5,0,38,0.95,,,,,walkway,1,1.694011696,2.942020828
12,capital,figure,91,3.182410633,38,5,1,29,0.725,figure,1,4.115484302,4.979457391,figure,1,2.272975928,3.091022659
12,link,crisis,67,9.500827651,39,5,1,17,0.425, ,0,3.150772276,3.294813656,high,0,3.422029718,4.05400369
12,knock,otter,43,3.382486904,40,5,0,2,0.05,,,,,forest,0,6.874389205,7.786396507
13,pork,emperor,18,0.965201896,1,5,0,11,0.275,,,,, ,0,5.982657397,17.16335762
13,forest,knob,28,0.715338768,2,5,0,19,0.475,,,,, ,0,7.313875077,9.977834234
13,fan,feature,82,1.115334791,3,5,1,28,0.7,feature,1,1.891374595,3.347154517,feature,1,1.947428229,3.518523056
13,anger,decay,100,0.698389382,4,5,1,40,1,decay,1,2.009867631,6.395540739,decay,1,1.39238955,2.712399904
13,prison,loaf,12,0.965051152,5,5,0,3,0.075,,,,, ,0,9.586637484,10.77853157
13,need,faucet,14,0.815094338,6,5,1,4,0.1,saucet,0,10.78913335,12.44515216,loyalty,0,1.944657749,4.992550045
13,shrink,mafia,74,0.581748892,7,5,0,25,0.625,,,,,mafia,1,1.639877981,2.567895208
13,mill,feast,10,1.18185422,8,5,0,1,0.025,,,,,feast,1,8.991317152,10.02331751
13,visit,glove,22,0.98178212,9,5,0,15,0.375,,,,, ,0,5.778462932,6.876923067
13,rock,milk,100,0.748340775,10,5,0,39,0.975,,,,,milk,1,1.318192767,2.265358958
13,bullet,walkway,99,1.532184301,11,5,0,37,0.925,,,,,walkaway,0,2.867446087,5.747459404
13,plant,worm,79,1.5317805,12,5,1,26,0.65,worm,1,1.728576647,2.624603776,worm,1,2.064921865,3.435024733
13,process,joker,16,1.715390085,13,5,0,7,0.175,,,,, ,0,9.762084448,11.54604216
13,smother,surgery,19,0.915165188,14,5,0,13,0.325,,,,,surgery,1,1.266492424,2.482576733
13,find,clown,100,1.415348486,15,5,1,38,0.95,clown,1,2.058151219,3.770152774,clown,1,2.258046917,3.985955801
13,chicken,beet,87,1.215272858,16,5,0,31,0.775,,,,,beet,1,3.082042201,4.681094888
13,collect,loyalty,91,1.581884241,17,5,1,34,0.85,loyalty,1,3.522008127,5.226049763,loyalty,1,1.697562856,3.049658886
13,capital,figure,89,1.081844951,18,5,1,32,0.8,figure,1,2.055598516,3.007993596,figure,1,0.950635867,2.043961408
13,banner,glide,18,1.01513629,19,5,1,12,0.3, ,0,8.79660961,16.08443133,saurce,0,5.833416777,7.129324145
13,caring,skirt,38,0.581600714,20,5,1,22,0.55,skirt,1,1.905327065,2.86525966, ,0,5.81243419,6.67643145
13,grip,beach,23,0.831805742,21,5,1,16,0.4, ,0,10.06059006,30.56409839,knob,0,3.76491266,4.658921745
13,bacon,feud,86,0.681672526,22,5,1,30,0.75,feud,1,1.591523831,2.558520542,feud,1,1.393245904,2.065268576
13,remind,foam,17,0.815059058,23,5,1,10,0.25,roach,0,12.01172787,13.77966151, ,0,12.91232511,13.95477042
13,replace,roach,38,2.01545606,24,5,0,21,0.525,,,,,remind,0,3.266130639,4.962240901
13,pea,bathtub,16,0.965121713,25,5,1,6,0.15, ,0,3.268581991,8.988484129, ,0,1.304187377,8.4395865
13,want,ascent,23,1.131854718,26,5,0,17,0.425,,,,, ,0,11.35765239,11.90967587
13,risk,zero,81,0.798449006,27,5,0,27,0.675,,,,,free,0,3.545631298,5.361658965
13,fee,chowder,11,1.031837109,28,5,1,2,0.05, ,0,9.309726092,13.62954946, ,0,7.829312053,8.733236237
13,bias,sirloin,16,0.631716643,29,5,0,9,0.225,,,,,sirloin,1,4.091895399,5.867846361
13,link,crisis,95,1.398571654,30,5,0,35,0.875,,,,,crisis,1,4.973403967,5.991864962
13,glue,force,85,1.081954321,31,5,0,29,0.725,,,,,force,1,6.66101484,7.894386265
13,bleach,ruin,96,0.731774984,32,5,1,36,0.9,ruin,1,3.918860979,5.10859269,ruin,1,1.526553857,2.654550493
13,knock,otter,16,1.21522122,33,5,1,8,0.2, ,0,8.461012659,25.25251654,beach,0,3.499752556,6.739619439
13,copy,bedroom,50,0.331655158,34,5,1,24,0.6,bedroom,1,1.887178462,3.619721919,bedroom,1,0.9704202,3.890396043
13,climax,saucer,15,1.014951549,35,5,0,5,0.125,,,,, ,0,3.447283419,4.087305729
13,date,laugh,90,0.831727804,36,5,0,33,0.825,,,,,laugh,1,1.26366357,4.063731309
13,calf,annoy,23,0.56513435,37,5,1,18,0.45,annoy,1,1.39311697,4.641073027, ,0,6.107388022,6.395414692
13,nerve,bumper,40,0.848449792,38,5,0,23,0.575,,,,, ,0,4.636477263,5.284493489
13,port,cinema,20,1.165063596,39,5,1,14,0.35,beach,0,2.054499048,3.966556987,grip,0,1.411244083,8.867046135
13,biology,temper,29,1.682040405,40,5,1,20,0.5,temper,1,1.474780066,3.20271076,temper,1,2.782008621,3.862028288
14,remind,foam,15,9.084413785,1,5,1,7,0.175,idk,0,3.576914985,5.384846906,idk,0,16.72053882,17.51101567
14,chicken,beet,55,2.382468972,2,5,1,27,0.675,beet,1,1.452925943,2.700823521,beet,1,1.099797231,2.603753506
14,calf,annoy,12,2.5489154,3,5,1,5,0.125,annoy,1,2.391192983,4.743262947,annoy,1,1.255194635,2.951101919
14,bullet,walkway,51,2.248837333,4,5,1,25,0.625,walkway,1,1.594173451,5.282152149,walkway,1,1.261932971,6.117862348
14,nerve,bumper,20,6.683473324,5,5,0,10,0.25,,,,,bumper,1,6.659226988,9.027242969
14,replace,roach,51,1.915718679,6,5,0,26,0.65,,,,,roach,1,1.286576377,3.146404617
14,fee,chowder,9,1.34879846,7,5,1,1,0.025,idk,0,3.884244565,10.20423743,idk,0,4.53918877,7.727805411
14,link,crisis,64,2.315590128,8,5,1,35,0.875,crisis,1,1.440763646,3.968783116,crisis,1,1.02861668,4.62057064
14,visit,glove,21,1.682180438,9,5,1,11,0.275,idk,0,4.933225074,6.357300201,idk,0,6.262980815,7.639010376
14,capital,figure,56,1.715367922,10,5,0,30,0.75,,,,,figure,1,1.33639946,5.184374912
14,grip,beach,12,4.983018328,11,5,0,4,0.1,,,,,beach,1,1.621261826,3.445809781
14,forest,knob,67,3.615873145,12,5,0,36,0.9,,,,,knob,1,1.311589271,2.639584814
14,process,joker,32,1.782276915,13,5,0,18,0.45,,,,,idk,0,6.914229824,7.762236708
14,port,cinema,56,1.81544708,14,5,0,32,0.8,,,,,cinema,1,1.855739822,3.895712469
14,copy,bedroom,56,2.282207957,15,5,1,31,0.775,bedroom,1,2.629963706,4.421976553,bedroom,1,1.833255287,4.37726696
14,bias,sirloin,15,2.782360307,16,5,0,6,0.15,,,,,idk,0,3.541274193,4.871498528
14,pork,emperor,19,3.315926901,17,5,1,9,0.225,idk,0,7.208782256,8.51128284,idk,0,3.121030254,3.92105989
14,pea,bathtub,43,3.482813057,18,5,0,20,0.5,,,,,bathroom,0,7.417857344,10.62584129
14,banner,glide,25,2.349095782,19,5,0,12,0.3,,,,,glide,1,2.382896192,3.798821745
14,bleach,ruin,70,2.015560492,20,5,0,38,0.95,,,,,ruin,1,1.373438338,2.655170644
14,collect,loyalty,68,2.615852939,21,5,1,37,0.925,idk,0,11.77652356,13.36858048,loyalty,1,2.783764488,5.135810076
14,date,laugh,56,1.615367345,22,5,0,28,0.7,,,,,laugh,1,1.195596812,2.643600425
14,mill,feast,45,1.148475607,23,5,1,21,0.525,feast,1,1.458186009,3.121802265,feast,1,2.511997118,5.151994078
14,knock,otter,10,2.148802758,24,5,0,2,0.05,,,,,idk,0,26.30141714,27.06316505
14,need,faucet,35,1.548660736,25,5,1,19,0.475,faucet,1,1.952746331,4.074199315,faucet,1,2.334016714,5.563212194
14,biology,temper,56,2.682399501,26,5,1,29,0.725,temper,1,1.487360127,2.895320531,temper,1,1.540707132,3.404711992
14,fan,feature,49,3.182528436,27,5,0,24,0.6,,,,,feature,1,1.112111557,2.872277275
14,anger,decay,30,2.349024258,28,5,1,17,0.425,calf,0,3.047401848,4.533751979,calf,0,1.652769617,4.380784789
14,climax,saucer,26,3.015955318,29,5,1,13,0.325,idk,0,2.302335726,5.062383413,idk,0,1.707993888,2.476050345
14,smother,surgery,27,2.782652176,30,5,0,16,0.4,,,,,surgery,1,1.369906717,4.060532126
14,prison,loaf,62,2.082252347,31,5,0,34,0.85,,,,,loaf,1,1.300941808,5.316931445
14,shrink,mafia,11,1.748895386,32,5,1,3,0.075,idk,0,3.294674954,4.622614047,idk,0,2.350156775,3.142265523
14,glue,force,47,5.149842583,33,5,0,22,0.55,,,,,force,1,2.695736011,4.223923226
14,plant,worm,74,2.61582728,34,5,0,40,1,,,,,worm,1,1.077718748,2.101655894
14,risk,zero,71,1.248705511,35,5,1,39,0.975,zero,1,1.489182547,3.073191885,zero,1,1.385480359,2.681581945
14,bacon,feud,26,1.748829315,36,5,1,15,0.375,idk,0,2.794973879,3.955025159,idk,0,3.909966284,5.46994001
14,caring,skirt,60,1.215216535,37,5,1,33,0.825,skirt,1,1.766255205,4.494372692,skirt,1,2.058133344,3.746125834
14,find,clown,26,8.11756695,38,5,0,14,0.35,,,,,clown,1,27.78175412,30.00314834
14,want,ascent,17,2.382518366,39,5,0,8,0.2,,,,,idk,0,35.66080084,36.65281163
14,rock,milk,48,2.949042155,40,5,1,23,0.575,milk,1,2.761731229,3.995534076,milk,1,1.428709116,3.020700281
15,pork,emperor,56,0.9150232,1,5,1,20,0.5,emporer,0,2.635850142,4.551223904,emporer,0,7.845560291,14.09932386
15,collect,loyalty,64,1.19847613,2,5,1,22,0.55,grip,0,10.51842279,11.70236358,grip,0,7.082332671,7.858014382
15,port,cinema,20,1.96542779,3,5,1,10,0.25,cinema,1,2.963296193,3.997302309,cinema,1,4.145593231,8.425533805
15,bacon,feud,53,0.715098316,4,5,0,17,0.425,,,,,argue,0,4.129549167,6.833545606
15,banner,glide,1,0.781783992,5,5,0,1,0.025,,,,,grip,0,5.577262031,6.440052459
15,date,laugh,100,1.565264344,6,5,0,39,0.975,,,,,laugh,1,1.539635794,2.514952126
15,climax,saucer,53,1.082165568,7,5,1,18,0.45,saucer,1,6.016137718,7.032152916,serlion,0,1.776387647,3.336293492
15,pea,bathtub,100,1.14852185,8,5,0,33,0.825,,,,,bath,0,8.027046193,9.820867001
15,shrink,mafia,65,1.398568437,9,5,0,25,0.625,,,,,skip,0,6.318181658,7.369268127
15,bullet,walkway,57,1.131907201,10,5,0,21,0.525,,,,,walkway,1,2.020294106,6.308230573
15,need,faucet,42,0.715107297,11,5,1,16,0.4,faucet,1,4.157818318,5.57172328,beach,0,4.237457146,7.115206596
15,want,ascent,21,0.698547814,12,5,0,11,0.275,,,,,skip,0,23.69599349,24.68814417
15,nerve,bumper,29,1.582014663,13,5,1,14,0.35,bumper,1,4.401594881,7.209566461,plant,0,11.40119364,26.20082999
15,prison,loaf,25,1.398694806,14,5,0,13,0.325,,,,,loaf,1,2.315093313,3.578825929
15,remind,foam,38,3.232509828,15,5,0,15,0.375,,,,,roach,0,2.900596918,4.212623053
15,smother,surgery,80,2.365813183,16,5,0,27,0.675,,,,,surgery,1,2.994204983,7.362154574
15,copy,bedroom,55,0.881774017,17,5,0,19,0.475,,,,,bedroom,1,3.309403817,5.605372098
15,bleach,ruin,100,0.765080179,18,5,1,36,0.9,ruin,1,2.028318544,3.157311879,ruin,1,2.420896316,3.430936244
15,link,crisis,65,5.399759642,19,5,1,24,0.6,faucet,0,10.78698726,17.98307616,grip,0,1.738282875,2.514295263
15,grip,beach,18,0.698440368,20,5,1,8,0.2,beach,1,7.672560684,8.712653042,beach,1,6.054516075,7.955813155
15,biology,temper,100,0.831858225,21,5,0,35,0.875,,,,,temper,1,1.281637577,3.089607233
15,process,joker,9,2.548891207,22,5,1,4,0.1,serlion,0,7.62070317,38.33214993,skip,0,10.69426666,11.88633742
15,anger,decay,64,1.148424347,23,5,0,23,0.575,,,,,faucet,0,13.10446169,14.62448141
15,forest,knob,21,1.015287453,24,5,1,12,0.3,cinema,0,27.56959265,29.22567211,beet,0,14.52497634,15.66095942
15,knock,otter,10,5.499845887,25,5,1,6,0.15,faucet,0,13.57634858,15.09635996,knob,0,6.482278659,7.762282097
15,calf,annoy,83,1.398678449,26,5,1,28,0.7,annoy,1,3.625536628,5.37544161,annoy,1,3.118170817,4.198217298
15,fee,chowder,2,0.915141551,27,5,1,2,0.05,serloin,0,9.822621094,11.86258388,glide,0,1.512999819,4.097001428
15,visit,glove,9,1.148501323,28,5,0,5,0.125,,,,,skip,0,11.37928592,12.6193686
15,chicken,beet,100,0.731783847,29,5,1,34,0.85,beet,1,2.665352834,3.577411172,beet,1,4.568758417,6.448752362
15,replace,roach,68,1.782101197,30,5,1,26,0.65,rodent,0,8.088024732,15.51509325,rodent,0,2.406741374,7.542617014
15,caring,skirt,19,1.8487811,31,5,0,9,0.225,,,,,skip,0,16.07528358,17.27395504
15,bias,sirloin,18,0.781707657,32,5,0,7,0.175,,,,,green,0,17.60167179,19.06565452
15,glue,force,100,3.916228197,33,5,1,40,1,force,1,1.738321363,2.706350303,force,1,3.571162317,4.555172457
15,find,clown,100,0.865084958,34,5,1,32,0.8,clown,1,4.674257044,5.602254245,clown,1,3.965049965,5.101088859
15,plant,worm,100,1.198581972,35,5,1,38,0.95,force,0,41.1113363,41.9673044,forest,0,21.80093597,24.28086333
15,capital,figure,91,1.348566368,36,5,1,30,0.75,figure,1,1.458346149,2.282449033,figure,1,1.080573446,2.091182998
15,risk,zero,100,0.981884959,37,5,0,37,0.925,,,,,zero,1,2.685611339,3.581623047
15,rock,milk,85,2.632169722,38,5,0,29,0.725,,,,,milk,1,11.1449322,12.14498159
15,mill,feast,7,2.232211225,39,5,0,3,0.075,,,,,glide,0,1.479006854,2.343047824
15,fan,feature,100,0.848445933,40,5,0,31,0.775,,,,,feature,1,4.338266967,6.053474332
16,bullet,walkway,49,2.665923731,1,5,1,11,0.275,walkway,1,0.808773909,1.656759933,walkway,1,1.444560159,2.634290329
16,pea,bathtub,21,3.182596962,2,5,0,2,0.05,,,,,bathtub,1,0.799679711,2.11968297
16,date,laugh,100,1.181875623,3,5,0,36,0.9,,,,,laugh,1,0.720016473,1.360298825
16,banner,glide,49,2.365673107,4,5,0,10,0.25,,,,,skip,0,6.431091099,18.00710819
16,glue,force,62,1.331957796,5,5,0,26,0.65,,,,,force,1,1.34475876,2.472720934
16,knock,otter,57,2.249130159,6,5,1,23,0.575,otter,1,2.404979197,3.541154823,otter,1,7.229603966,7.957698861
16,shrink,mafia,100,0.948532817,7,5,0,40,1,,,,,mafia,1,1.202280638,1.978498383
16,pork,emperor,52,1.198557514,8,5,1,19,0.475,emperor,1,1.431920206,3.016006417,emperor,1,1.182323052,2.302354985
16,find,clown,72,1.865485154,9,5,0,30,0.75,,,,,skip,0,17.23830109,22.27839459
16,bacon,feud,100,1.548877867,10,5,1,39,0.975,feud,1,0.793138586,1.604367742,feud,1,0.746255387,1.362188291
16,grip,beach,47,1.615477777,11,5,0,6,0.15,,,,,beach,1,1.232982938,3.168970419
16,prison,loaf,65,1.265153896,12,5,1,27,0.675,loaf,1,1.261092394,1.941154887,loaf,1,1.319332917,2.255080165
16,climax,saucer,24,1.648693379,13,5,1,3,0.075,saucer,1,1.728737332,4.344706801,saucer,1,0.906547604,4.234677716
16,bias,sirloin,52,2.782447755,14,5,0,16,0.4,,,,,skip,0,8.591866347,9.520730884
16,need,faucet,42,0.98189692,15,5,1,5,0.125,faucet,1,0.930636613,2.309622261,faucet,1,0.762362837,1.850217396
16,fee,chowder,52,1.04852698,16,5,0,18,0.45,,,,,chowder,1,7.948738731,10.99185134
16,calf,annoy,89,1.665580542,17,5,0,32,0.8,,,,,annoy,1,0.873967385,1.810029277
16,link,crisis,89,1.748716728,18,5,1,31,0.775,crisis,1,0.765738601,1.981767663,crisis,1,0.815090198,2.14320331
16,capital,figure,50,2.049082177,19,5,1,15,0.375,figure,1,1.54732261,3.34737566,figure,1,3.721727288,4.49756528
16,visit,glove,52,2.932526721,20,5,1,21,0.525,glove,1,3.258192284,4.440525279,glove,1,2.658379338,3.570380767
16,caring,skirt,39,1.63207788,21,5,0,4,0.1,,,,,skip,0,16.69001306,17.81000586
16,nerve,bumper,48,2.282226125,22,5,0,8,0.2,,,,,bumper,1,2.411517757,3.203519327
16,remind,foam,52,1.281807883,23,5,1,17,0.425,skip,0,10.87281562,29.55301827,skip,0,13.07209383,13.8881023
16,plant,worm,100,0.965165956,24,5,1,37,0.925,worm,1,0.725659212,1.461679858,worm,1,0.752487963,2.00856466
16,mill,feast,48,1.181939771,25,5,1,9,0.225, feast,0,12.58526011,71.88619359,feast,1,2.477834776,3.49384376
16,bleach,ruin,100,1.348686515,26,5,0,38,0.95,,,,,ruin,1,1.087607271,1.679554444
16,rock,milk,66,1.798756949,27,5,0,28,0.7,,,,,milk,1,1.498418121,2.37841698
16,forest,knob,92,1.498694597,28,5,1,33,0.825,knob,1,1.23855287,1.998680485,knob,1,0.666575149,1.362575421
16,want,ascent,61,1.148623137,29,5,1,25,0.625,ascent,1,3.003940905,4.147966908,ascent,1,1.234289624,3.378265591
16,anger,decay,99,1.498806214,30,5,0,34,0.85,,,,,decay,1,15.32774747,16.35971829
16,port,cinema,71,1.665624162,31,5,1,29,0.725,cinema,1,1.030470407,1.998670542,cinema,1,2.187313732,5.307390247
16,biology,temper,50,1.46545879,32,5,0,12,0.3,,,,,temper,1,5.20418999,6.052169919
16,process,joker,52,3.132893196,33,5,0,20,0.5,,,,,skip,0,26.05125036,26.94912747
16,collect,loyalty,57,3.332646099,34,5,0,22,0.55,,,,,loyalty,1,0.979637323,2.315750918
16,fan,feature,47,2.065556551,35,5,1,7,0.175,feature,1,1.808469529,4.560155968,feature,1,2.885350688,3.877311397
16,chicken,beet,50,2.399157807,36,5,0,14,0.35,,,,,beet,1,0.782482395,1.456215769
16,copy,bedroom,99,2.132198798,37,5,1,35,0.875,bedroom,1,1.545226909,3.04926596,bedroom,1,3.123585065,4.34756297
16,risk,zero,50,3.399504204,38,5,1,13,0.325,zero,1,0.913133954,1.593303573,zero,1,0.899280329,1.571288134
16,replace,roach,16,3.115905,39,5,1,1,0.025,roach,1,2.042419492,2.975257649,skip,0,26.88515696,27.63735305
16,smother,surgery,59,2.532445831,40,5,0,24,0.6,,,,,surgery,1,1.024999904,2.353038284
17,want,ascent,29,0.581727303,1,5,0,1,0.025,,,,,skip,0,3.160535269,4.352939158
17,climax,saucer,63,1.582262931,2,5,1,32,0.8,replace,0,6.212573994,8.628564656,skip,0,6.375045544,8.582998058
17,fee,chowder,40,0.59849761,3,5,0,5,0.125,,,,,skip,0,1.705991856,2.442041136
17,link,crisis,55,0.78245332,4,5,0,21,0.525,,,,,skip,0,2.252965843,3.045003708
17,date,laugh,96,1.765480308,5,5,1,38,0.95,laugh,1,1.595086586,2.803159696,laugh,1,0.91923747,1.551326371
17,prison,loaf,41,0.765358108,6,5,0,7,0.175,,,,,cell,0,3.078133459,3.782073569
17,need,faucet,58,2.649225808,7,5,1,26,0.65,skip,0,1.706095133,2.786123819,skip,0,11.29539212,12.10341802
17,caring,skirt,61,1.665360738,8,5,0,29,0.725,,,,,skip,0,2.499371037,3.51534175
17,calf,annoy,54,0.815124741,9,5,1,18,0.45,annoy,1,1.938681109,3.026708944,skip,0,19.51792399,20.47753631
17,risk,zero,54,0.68170607,10,5,0,17,0.425,,,,,skip,0,2.790953137,3.798968642
17,banner,glide,39,1.515577812,11,5,1,4,0.1,skip,0,1.323937916,2.099989993,skip,0,3.068220161,3.964305325
17,glue,force,64,0.681867079,12,5,1,34,0.85,force,1,1.668484703,4.41245391,skip,0,1.968402082,2.816440719
17,knock,otter,37,1.148550018,13,5,0,3,0.075,,,,,otter,1,1.277344963,2.061384321
17,bacon,feud,42,2.415494164,14,5,0,9,0.225,,,,,skip,0,1.531371479,2.363435554
17,replace,roach,63,0.848759972,15,5,0,31,0.775,,,,,roaches,0,4.57191247,5.843892166
17,visit,glove,41,0.715209158,16,5,1,8,0.2,skip,0,1.872912011,3.144907423,skip,0,1.392041329,2.080075514
17,forest,knob,57,14.71918756,17,5,0,23,0.575,,,,,skip,0,1.268818204,3.268825902
17,anger,decay,62,1.015405898,18,5,1,30,0.75,skip,0,1.406386874,2.198417362,skip,0,2.048357961,2.895474804
17,copy,bedroom,50,2.615878277,19,5,1,14,0.35,skip,0,2.339453184,4.318771185,skip,0,5.998415886,8.775257936
17,plant,worm,100,1.098536419,20,5,1,40,1,grow,0,7.046793413,9.55080742,grow,0,9.061127091,9.889940189
17,shrink,mafia,68,1.4322247,21,5,0,35,0.875,,,,,skip,0,1.639352601,2.471385886
17,port,cinema,60,0.681971319,22,5,0,27,0.675,,,,,skip,0,1.474024579,2.263411242
17,remind,foam,57,3.032591878,23,5,1,24,0.6,skip,0,9.922970513,12.00900594,roach,0,3.509261243,4.132187045
17,pea,bathtub,55,0.715311794,24,5,1,22,0.55,bath,0,2.161885567,2.817917707,bath,0,1.409581401,2.769601441
17,biology,temper,45,1.732008652,25,5,0,11,0.275,,,,,seed,0,4.020535423,4.644634477
17,fan,feature,53,1.148606788,26,5,1,16,0.4,feature,1,3.147351429,4.53744493,skip,0,1.023692104,1.687745523
17,nerve,bumper,46,0.748779922,27,5,1,12,0.3,skip,0,1.86476372,2.616772488,skip,0,4.4436384,8.107583411
17,collect,loyalty,40,10.66818385,28,5,1,6,0.15,skip,0,1.480370976,2.304345455,skip,0,5.580955292,6.388886572
17,bullet,walkway,73,2.099051841,29,5,0,37,0.925,,,,,skip,0,1.115339762,2.098945998
17,mill,feast,72,0.748575292,30,5,1,36,0.9,feast,1,3.467207983,5.427198772,leaf,0,2.793960675,7.149199187
17,smother,surgery,50,1.115458434,31,5,0,15,0.375,,,,,skip,0,1.08646489,1.974403047
17,capital,figure,61,1.04881084,32,5,1,28,0.7,income,0,2.181097955,3.061121318,income,0,13.04413708,16.61211284
17,process,joker,43,1.481887094,33,5,1,10,0.25,skip,0,3.169916468,4.444700998,skip,0,1.246034424,1.977052644
17,pork,emperor,64,0.982111608,34,5,0,33,0.825,,,,,skip,0,5.209506157,6.066192149
17,grip,beach,50,3.9829452,35,5,0,13,0.325,,,,,skip,0,1.333673527,2.117701018
17,bleach,ruin,100,0.94848183,36,5,0,39,0.975,,,,,skip,0,2.194613757,2.890653185
17,bias,sirloin,57,1.348827968,37,5,0,25,0.625,,,,,battle,0,7.748346287,14.43630831
17,find,clown,35,0.598415181,38,5,1,2,0.05,skip,0,0.984138337,1.728183558,skip,0,2.630795053,3.375177367
17,chicken,beet,55,0.781871185,39,5,0,19,0.475,,,,,skip,0,3.28121945,4.209169384
17,rock,milk,55,1.082086527,40,5,1,20,0.5,skip,0,4.597114277,5.613136949,skip,0,2.466162385,3.03774161
18,plant,worm,100,1.165568528,1,5,1,39,0.975,worm,1,2.866115475,6.16199812,die,0,7.65231148,22.46597801
18,capital,figure,87,1.715343036,2,5,0,32,0.8,,,,,skip,0,3.432790085,16.49652629
18,calf,annoy,48,3.749246516,3,5,1,15,0.375,annoy,1,4.744390608,6.39214831,annoying ,0,7.622082646,22.85376113
18,chicken,beet,52,2.049094713,4,5,0,18,0.45,,,,,skip,0,5.457668118,6.62691899
18,mill,feast,38,0.982101133,5,5,0,4,0.1,,,,,skip,0,11.35347295,12.72953486
18,anger,decay,40,0.798474013,6,5,1,5,0.125,skip,0,2.598789358,17.80650615,blueprint,0,28.35615589,34.34247147
18,bacon,feud,50,3.399249355,7,5,1,17,0.425,skirt,0,11.47309317,14.01704956,skip,0,12.10745671,15.29935555
18,copy,bedroom,43,1.331817973,8,5,1,9,0.225,bedroom,1,2.658204642,6.018192018,skip,0,12.18026743,15.11621049
18,visit,glove,42,0.865102919,9,5,1,7,0.175,saucer,0,11.62608733,13.2900594,skip,0,14.52203778,15.93797042
18,knock,otter,48,1.798775823,10,5,0,14,0.35,,,,,skip,0,8.988869898,14.18248499
18,bullet,walkway,63,11.7350842,11,5,1,23,0.575,getaway,0,5.162284856,7.86621362,getaway,0,1.784758797,9.368630509
18,bleach,ruin,80,1.732330698,12,5,1,29,0.725,ruin,1,2.180015337,3.868005238,ruin,1,1.878445442,4.406429621
18,remind,foam,47,2.865981408,13,5,1,13,0.325,order,0,13.093669,16.61356075,skip,0,4.620568141,6.276570625
18,port,cinema,43,2.682644552,14,5,0,8,0.2,,,,,canal,0,6.323936263,9.715901113
18,process,joker,100,0.915381781,15,5,0,36,0.9,,,,,skip,0,5.404118734,9.204083518
18,find,clown,85,1.498712414,16,5,1,31,0.775,feature,0,8.678948417,16.51573279,skip,0,3.969878933,12.8817227
18,shrink,mafia,65,1.015332035,17,5,1,25,0.625, skip,0,11.6268449,46.30382273,clothes,0,11.61028606,15.05705821
18,fee,chowder,33,1.015370202,18,5,0,2,0.05,,,,,skip,0,18.60319464,20.04315152
18,caring,skirt,60,2.032294359,19,5,0,22,0.55,,,,,cousin,0,2.701844957,5.941837503
18,banner,glide,89,1.282029834,20,5,1,33,0.825,glide,1,3.593800987,5.193865262,glide,1,2.798501275,7.137102767
18,grip,beach,46,1.432252215,21,5,0,12,0.3,,,,,skip,0,6.287672503,8.391816992
18,replace,roach,72,0.982084134,22,5,1,27,0.675,bacon,0,6.174122497,15.50201341,skip,0,11.36388365,13.25981485
18,link,crisis,90,7.35034195,23,5,0,34,0.85,,,,,skip,0,6.773593093,18.14934197
18,rock,milk,50,3.100562856,24,5,0,16,0.4,,,,,steady,0,10.4398613,13.79984226
18,date,laugh,44,5.333108606,25,5,0,10,0.25,,,,,skip,0,5.256558764,6.784570206
18,pea,bathtub,68,0.698304377,26,5,0,26,0.65,,,,,skip,0,3.464625795,21.29818487
18,pork,emperor,100,1.015064222,27,5,0,38,0.95,,,,,emporer,0,1.682619214,4.002681976
18,climax,saucer,37,0.831858225,28,5,1,3,0.075,feature,0,5.500483185,8.500379268,calendar,0,3.887190889,10.37514204
18,collect,loyalty,56,2.765727419,29,5,0,20,0.5,,,,,skip,0,2.619152743,12.57097405
18,risk,zero,100,1.198917459,30,5,1,35,0.875,crisis,0,7.130733637,10.23469852,skip,0,5.233146805,8.864621818
18,want,ascent,44,1.082037275,31,5,1,11,0.275,skip,0,26.89939609,29.42733023,skip,0,7.715625602,9.227631147
18,forest,knob,40,0.832116737,32,5,0,6,0.15,,,,,green,0,2.287174724,5.727155339
18,bias,sirloin,13,7.467334071,33,5,1,1,0.025,sirloin,1,3.909352949,6.566389478,skip,0,2.784451534,4.391890761
18,biology,temper,60,0.898764566,34,5,1,21,0.525,temper,1,1.506955913,3.474888312,tree,0,5.015585735,7.328448665
18,fan,feature,100,1.348778053,35,5,0,40,1,,,,,feature,1,2.156591832,4.812459287
18,smother,surgery,55,6.716837976,36,5,1,19,0.475,surgery,1,3.009179079,5.009141874,surgery,1,1.955093107,12.00291387
18,nerve,bumper,81,1.231849437,37,5,0,30,0.75,,,,,ball,0,10.28769111,12.29565845
18,need,faucet,72,1.148586318,38,5,0,28,0.7,,,,,skip,0,4.128537894,7.032518873
18,glue,force,64,2.048840692,39,5,0,24,0.6,,,,,skip,0,4.207618004,5.935594421
18,prison,loaf,100,1.315364333,40,5,1,37,0.925,loaf,1,2.504556183,3.608627545,loaf,1,2.622839898,7.014737715
19,date,laugh,74,1.132088095,1,5,1,38,0.95,laugh,1,2.063319896,3.15933154,SKIP,0,9.680429244,11.97442405
19,bullet,walkway,47,0.815143187,2,5,1,22,0.55,walkway,1,3.730762631,6.498697661,Walkway,0,6.760981201,8.448977517
19,banner,glide,16,23.57192887,3,5,0,3,0.075,,,,,SKIP,0,4.180142348,24.45967399
19,replace,roach,59,0.848332714,4,5,0,35,0.875,,,,,reuse,0,1.915429249,6.531360543
19,port,cinema,26,2.132198748,5,5,0,11,0.275,,,,,cinema,1,2.210822775,19.25049305
19,shrink,mafia,39,1.748956894,6,5,0,19,0.475,,,,,big,0,15.13841617,15.90140485
19,remind,foam,22,3.616103848,7,5,1,8,0.2, r,0,8.235709147,22.24339842,repair,0,2.433271507,4.273292085
19,plant,worm,54,6.233250402,8,5,1,26,0.65,rock,0,6.260173434,7.252179145,rock,0,1.987155576,3.355152636
19,collect,loyalty,77,1.23213489,9,5,0,39,0.975,,,,,SKIP,0,2.251943727,3.539968395
19,fee,chowder,37,1.248726767,10,5,0,17,0.425,,,,,chowder,1,4.053297608,6.277241921
19,knock,otter,54,0.782001128,11,5,0,29,0.725,,,,,collect,0,5.586560423,7.826456107
19,need,faucet,47,2.248863721,12,5,0,23,0.575,,,,,use,0,2.24034407,2.76043435
19,grip,beach,21,1.481937078,13,5,0,7,0.175,,,,,SKIP,0,2.272550869,3.400554741
19,want,ascent,26,0.931807517,14,5,0,13,0.325,,,,,SKIP,0,3.896845295,4.80882826
19,copy,bedroom,26,3.449259442,15,5,1,12,0.3,delete,0,3.022427306,4.389729977,SKIP,0,1.292100873,2.124122994
19,bias,sirloin,25,5.533118484,16,5,1,10,0.25,SKIP,0,5.419379246,6.544786778,SKIP,0,3.070842705,7.166844727
19,mill,feast,39,1.532010029,17,5,1,18,0.45,feast,1,4.5957302,5.711441631,feast,1,4.720459701,5.760480536
19,climax,saucer,53,0.748512677,18,5,0,25,0.625,,,,,saucer,1,2.657339302,4.025353681
19,glue,force,80,1.282284817,19,5,1,40,1,force,1,12.00160142,14.59360149,force,1,2.94849786,9.82365963
19,chicken,beet,55,1.098591305,20,5,1,30,0.75,beet,1,2.134498409,4.478216566,beet,1,1.7947179,2.418690309
19,fan,feature,54,0.78197579,21,5,0,27,0.675,,,,,SKIP,0,1.943725342,2.623745009
19,pea,bathtub,55,0.748402666,22,5,0,33,0.825,,,,,bathtub,1,4.936105349,6.408152282
19,calf,annoy,37,1.448818754,23,5,1,16,0.4,SKIP,0,6.351255079,7.423244408,SKIP,0,3.34211064,4.142141494
19,anger,decay,55,2.56580029,24,5,0,31,0.775,,,,,SKIP,0,4.069089575,5.917125931
19,capital,figure,55,0.831732498,25,5,1,32,0.8,figure,1,3.466168845,6.489617368,figure,1,1.30546232,2.277216904
19,pork,emperor,20,1.248760765,26,5,0,5,0.125,,,,,SKIP,0,2.172844693,2.859944879
19,risk,zero,61,1.798924644,27,5,1,36,0.9,walkway,0,5.609299162,7.489602614,SKIP,0,1.788958805,2.652994322
19,caring,skirt,20,1.115181579,28,5,1,6,0.15,SKIP,0,11.6496372,19.56937968,SKIP,0,1.378022875,2.09014831
19,bleach,ruin,68,1.632053616,29,5,0,37,0.925,,,,,rinse,0,11.79364312,13.13764994
19,link,crisis,56,0.98210851,30,5,1,34,0.85,SKIP,0,7.203841364,8.37616711,SKIP,0,1.504967043,2.121007065
19,biology,temper,12,2.465833037,31,5,1,2,0.05,mill,0,10.92569209,12.01290023,SKIP,0,2.482100331,7.130059454
19,process,joker,23,1.615381235,32,5,0,9,0.225,,,,,problem,0,10.42187199,14.05408373
19,rock,milk,54,0.89963632,33,5,1,28,0.7,mill,0,5.946491029,7.034496517,plant,0,5.205199671,6.085224406
19,bacon,feud,9,1.548685296,34,5,0,1,0.025,,,,,grease,0,2.098556025,4.770657097
19,visit,glove,31,1.431837506,35,5,1,14,0.35,SKIP,0,4.217971609,23.77763562,SKIP,0,1.664670954,2.256637023
19,prison,loaf,45,0.84871118,36,5,0,21,0.525,,,,,loaf,1,1.038080396,1.846116123
19,nerve,bumper,18,2.598942348,37,5,1,4,0.1,anger,0,5.273985832,6.810000863,SKIP,0,2.108067704,2.956024518
19,forest,knob,33,2.365518108,38,5,0,15,0.375,,,,,SKIP,0,3.772989793,4.501070449
19,smother,surgery,50,3.2660512,39,5,1,24,0.6,surgery,1,4.177034438,11.32098712,surgery,1,1.714145095,8.154084015
19,find,clown,45,0.965048041,40,5,1,20,0.5,SKIP,0,7.456372033,23.64796714,SKIP,0,4.161542357,5.049507497
20,pork,emperor,66,1.632047525,1,5,0,4,0.1,,,,,glove,0,7.203592111,19.86527145
20,risk,zero,99,1.581759697,2,5,0,38,0.95,,,,,zero,1,2.160674789,3.680606267
20,biology,temper,76,7.600474304,3,5,1,11,0.275,temper,1,2.035185988,12.44336994,temper,1,1.081027458,2.993061846
20,bias,sirloin,100,1.248595498,4,5,1,39,0.975,sirloin,1,2.884694236,5.668698634,sirloin,1,1.283814843,3.55596485
20,mill,feast,94,1.098536419,5,5,0,32,0.8,,,,,feast,1,2.765991561,4.406006161
20,process,joker,89,3.532519392,6,5,0,24,0.6,,,,,ruin,0,3.339862443,4.763846801
20,collect,loyalty,73,1.431966187,7,5,1,9,0.225,loyalty,1,7.275971252,9.403944151,ascend,0,3.61358662,5.47761329
20,plant,worm,91,1.315241488,8,5,1,25,0.625,worm,1,5.420273767,8.204286825,worm,1,1.194344019,2.498357513
20,want,ascent,83,1.131670661,9,5,0,18,0.45,,,,,skip,0,8.431123293,9.879472659
20,nerve,bumper,92,1.131805691,10,5,1,27,0.675,bumper,1,1.881807615,7.033725679,bumper,1,2.731000259,4.515004657
20,prison,loaf,78,5.366515579,11,5,0,12,0.3,,,,,loaf,1,5.485102789,7.350792474
20,port,cinema,83,0.948479905,12,5,1,17,0.425,cinema,1,2.104196442,4.552216091,cinema,1,2.065537207,4.169508171
20,fee,chowder,100,1.515497307,13,5,0,40,1,,,,,skip,0,4.750616775,8.662565206
20,glue,force,87,1.832098394,14,5,1,21,0.525,rock,0,15.31649973,17.34050039,skip,0,8.782718569,9.926825114
20,date,laugh,92,1.165205502,15,5,0,28,0.7,,,,,laugh,1,2.009752931,3.489781361
20,smother,surgery,71,1.16512211,16,5,0,8,0.2,,,,,skip,0,3.184398967,4.421886426
20,chicken,beet,95,1.548670037,17,5,1,33,0.825,beet,1,1.766036143,3.037860603,fee,0,1.493644622,8.005557387
20,knock,otter,80,2.132108465,18,5,0,16,0.4,,,,,skip,0,4.086074234,5.100203924
20,replace,roach,67,1.065120892,19,5,1,5,0.125, feast,0,13.03672039,46.38015743,skip,0,1.142187263,2.166212933
20,bullet,walkway,93,1.765378314,20,5,1,29,0.725,walkway,1,2.146935755,4.639882778,walkway,1,3.040409169,4.984535408
20,calf,annoy,78,5.233095625,21,5,1,15,0.375,annoy,1,5.347332377,7.251346128,happy,0,2.523609354,4.147616356
20,capital,figure,73,2.282158243,22,5,0,10,0.25,,,,,skip,0,7.830198997,8.870226811
20,caring,skirt,94,1.481968881,23,5,1,31,0.775,skirt,1,4.095597838,5.623618591,calf,0,4.728603081,6.97657122
20,grip,beach,96,1.498613139,24,5,0,34,0.85,,,,,skip,0,3.122282406,4.186313118
20,link,crisis,78,11.76830118,25,5,0,14,0.35,,,,,skip,0,1.419658917,3.747629763
20,climax,saucer,61,1.431959772,26,5,0,2,0.05,,,,,skip,0,1.724259999,2.468298805
20,copy,bedroom,78,6.183320654,27,5,1,13,0.325,not sure,0,4.865701872,8.693680096,skip,0,2.177955708,2.841998543
20,bacon,feud,96,1.615350025,28,5,1,35,0.875,feud,1,4.02874305,5.812723392,feud,1,1.258542154,2.638944946
20,anger,decay,92,1.315355029,29,5,0,26,0.65,,,,,skip,0,4.914107944,5.738102951
20,fan,feature,67,1.148571507,30,5,0,6,0.15,,,,,skip,0,1.321935884,2.02579613
20,need,faucet,97,2.648938108,31,5,0,36,0.9,,,,,skip,0,1.49008189,5.562067809
20,forest,knob,85,1.465235458,32,5,0,20,0.5,,,,,ruin,0,19.01249169,21.1007944
20,shrink,mafia,93,1.181861627,33,5,0,30,0.75,,,,,skip,0,16.31522513,17.10717896
20,remind,foam,65,14.23567434,34,5,1,3,0.075,not sure,0,10.59182695,13.64781842,skip,0,2.554100413,3.194134257
20,banner,glide,71,1.565177983,35,5,1,7,0.175,glide,1,2.617871649,4.545855902,skip,0,2.850990368,3.501751538
20,pea,bathtub,84,1.548678056,36,5,1,19,0.475,bathtub,1,8.85334104,14.0037494,skip,0,7.367759713,9.191791925
20,visit,glove,58,1.065025954,37,5,1,1,0.025,glove,1,7.254430643,9.070372297,glove,1,1.400925066,2.088999664
20,bleach,ruin,88,2.799033431,38,5,1,23,0.575,ruin,1,2.358264012,3.814361069,ruin,1,1.763928589,2.515951469
20,find,clown,98,2.89905229,39,5,1,37,0.925,feud,0,20.32785763,22.01583985,skip,0,3.139843968,3.888381734
20,rock,milk,87,1.948748361,40,5,0,22,0.55,,,,,skip,0,5.95121995,6.839241819
21,plant,worm,71,4.516187323,1,5,0,37,0.925,,,,,worm,1,2.576806194,4.099116985
21,capital,figure,58,8.417266628,2,5,1,30,0.75,feature,0,18.09651647,21.71246674,skip,0,4.517841673,5.893742818
21,knock,otter,51,2.665719644,3,5,1,26,0.65,skip,0,7.50456614,9.256541626,skip,0,4.792977897,5.760912439
21,calf,annoy,47,1.315384588,4,5,1,12,0.3,weak,0,3.673748597,4.921764452,skip,0,4.34869129,5.372770773
21,want,ascent,65,1.865443427,5,5,1,36,0.9,accent,0,1.623233513,3.805112576,accent,0,2.101810836,4.325556371
21,shrink,mafia,43,3.882681638,6,5,0,7,0.175,,,,,skip,0,3.231815221,4.431926131
21,risk,zero,50,2.015588672,7,5,0,25,0.625,,,,,zero,1,2.867211317,4.04828277
21,need,faucet,49,0.69846538,8,5,0,19,0.475,,,,,skip,0,5.445381917,6.549405823
21,pork,emperor,74,1.482056012,9,5,0,39,0.975,,,,,king,0,19.63186128,24.00780059
21,bullet,walkway,50,1.048777022,10,5,0,23,0.575,,,,,walkway,1,2.104768973,3.568845878
21,biology,temper,61,2.898866876,11,5,1,32,0.8,anger,0,6.604012841,20.20395011,skip,0,9.741920771,10.80593847
21,date,laugh,76,8.800853539,12,5,1,40,1,laugh,1,1.459551337,2.387582946,laugh,1,1.283613565,2.516045558
21,grip,beach,46,1.131846685,13,5,0,11,0.275,,,,,skip,0,2.334017674,3.254049196
21,prison,loaf,65,0.848443202,14,5,0,35,0.875,,,,,loaf,1,1.206538435,3.926529608
21,bleach,ruin,71,2.96585586,15,5,1,38,0.95,ruin,1,4.19802004,6.566009941,ruin,1,1.369045118,2.296998789
21,chicken,beet,63,7.850604633,16,5,1,34,0.85,beet,1,2.67495456,4.458726086,skip,0,2.966116297,3.974143646
21,pea,bathtub,49,8.567420212,17,5,0,21,0.525,,,,,skip,0,2.352939422,6.328907087
21,bias,sirloin,52,2.215329454,18,5,0,29,0.725,,,,,sirloin,1,1.952690019,4.024706199
21,anger,decay,46,1.648701457,19,5,1,10,0.25,biology,0,2.850131549,5.482073974,skip,0,1.598466054,2.462396254
21,mill,feast,51,14.78593007,20,5,0,27,0.675,,,,,feast,1,2.363020436,3.851041474
21,find,clown,50,1.115187401,21,5,1,22,0.55,skirt,0,5.812149176,7.081905075,skip,0,2.664331504,3.680123521
21,visit,glove,48,1.265310835,22,5,1,16,0.4,glove,1,2.601548956,3.766008273,skirt,0,1.517620687,4.397543685
21,rock,milk,50,2.165578039,23,5,1,24,0.6,milk,1,1.965581311,2.861628608,milk,1,0.87609984,1.796124626
21,nerve,bumper,31,2.032090796,24,5,1,2,0.05,sirloin,0,7.199475855,20.30924765,skip,0,2.852245512,3.748446762
21,fan,feature,47,1.465347976,25,5,0,15,0.375,,,,,feature,1,1.963806685,3.283833268
21,caring,skirt,52,3.315869218,26,5,1,28,0.7,skirt,1,1.685905407,3.053936362,skirt,1,1.894511298,4.266254437
21,bacon,feud,61,1.982123206,27,5,0,33,0.825,,,,,feud,1,1.242905267,2.570939313
21,link,crisis,27,1.248531917,28,5,0,1,0.025,,,,,skip,0,1.890773776,2.854688549
21,replace,roach,48,20.43779782,29,5,1,18,0.45,roach,1,3.25862127,5.346721978,roach,1,1.369262576,2.585287383
21,copy,bedroom,48,1.99887807,30,5,0,17,0.425,,,,,bedroom,1,2.277413762,4.058088915
21,smother,surgery,47,1.031868527,31,5,0,13,0.325,,,,,skip,0,3.10605095,4.01807148
21,collect,loyalty,36,1.015106287,32,5,0,3,0.075,,,,,skip,0,2.946050167,3.866095802
21,forest,knob,44,3.915853952,33,5,1,8,0.2,knob,1,1.844697661,2.87671116,knob,1,1.2728558,2.200843789
21,fee,chowder,49,1.181927815,34,5,1,20,0.5,chowder,1,2.217653498,4.041662484,chowder,1,1.726092832,3.422111006
21,process,joker,40,1.465362089,35,5,0,5,0.125,,,,,skip,0,3.82137447,6.053365133
21,port,cinema,47,7.700587041,36,5,1,14,0.35,pork,0,9.561343571,10.55328864,skip,0,2.927522282,3.928799448
21,remind,foam,45,1.048578487,37,5,0,9,0.225,,,,,skip,0,2.921174941,3.79332814
21,banner,glide,40,0.865134559,38,5,1,4,0.1,skip,0,7.565893835,11.13380605,skip,0,1.366621005,2.290645674
21,climax,saucer,42,7.250378387,39,5,1,6,0.15,saucer,1,4.013345774,5.221371455,saucer,1,6.770423187,8.084532213
21,glue,force,60,2.298951743,40,5,0,31,0.775,,,,,force,1,1.063070567,1.999064417
22,pork,emperor,84,1.398712446,1,5,1,33,0.825,emperor,1,4.31588777,5.63594123,emperor,1,1.761100217,3.854917952
22,bacon,feud,84,1.532027348,2,5,1,35,0.875,feur,0,1.768997941,2.569044191,feud,1,2.431145845,3.519161774
22,copy,bedroom,20,2.548887679,3,5,1,7,0.175,bedroom,1,3.287744668,15.27948449,bedroom,1,11.0496664,13.22575343
22,visit,glove,20,1.032035527,4,5,1,9,0.225,glove,1,2.754563319,3.802644193,skip,0,10.63525179,11.81924978
22,biology,temper,21,1.165227588,5,5,0,10,0.25,,,,,angry,0,5.167394739,6.575402958
22,capital,figure,68,0.965181466,6,5,1,21,0.525,symbol,0,2.66959101,4.68556772,symbol,0,5.845658604,7.685674487
22,glue,force,76,0.831778363,7,5,0,26,0.65,,,,,stuck,0,3.993782198,12.07380024
22,rock,milk,17,1.198805203,8,5,1,5,0.125,shoer,0,2.080190169,3.176273658,skip,0,7.759973469,9.983956749
22,shrink,mafia,70,1.198493129,9,5,1,23,0.575,mafia,1,2.528252633,3.512346485,gang,0,46.81251977,52.95388672
22,date,laugh,90,1.4653359,10,5,1,39,0.975,laugh,1,1.956791072,3.459334009,funny,0,4.678253281,5.918253512
22,mill,feast,78,1.081883644,11,5,1,27,0.675,feast,1,1.907516748,2.979536546,feast,1,2.220193135,3.876227379
22,port,cinema,20,1.015443009,12,5,0,8,0.2,,,,,skip,0,6.449412763,7.918628132
22,risk,zero,79,1.065090346,13,5,1,29,0.725,zero,1,8.19557381,9.155558749,zero,1,2.677871283,3.613973152
22,nerve,bumper,66,2.582561194,14,5,0,20,0.5,,,,,bounce ,0,4.243816036,11.4037251
22,caring,skirt,84,1.565699259,15,5,0,34,0.85,,,,,skirt,1,18.61847886,20.41051862
22,link,crisis,22,0.915409043,16,5,1,13,0.325,next,0,6.402080471,8.978076245,skip,0,1.616996095,2.513050777
22,climax,saucer,68,1.415535572,17,5,0,22,0.55,,,,,juice,0,5.706692364,12.49859197
22,process,joker,73,0.815138055,18,5,0,24,0.6,,,,,skip,0,47.08349835,47.91545316
22,fee,chowder,22,1.04876981,19,5,0,12,0.3,,,,,skip,0,3.297313638,4.113306019
22,grip,beach,22,2.698990426,20,5,1,11,0.275,next,0,2.153695286,3.41900976,skip,0,4.864723515,6.144796592
22,find,clown,83,0.848707972,21,5,0,32,0.8,,,,,skip,0,11.94521079,12.92161547
22,banner,glide,14,1.248840948,22,5,0,2,0.05,,,,,rock,0,12.8701321,14.17836458
22,need,faucet,15,0.882066205,23,5,0,4,0.1,,,,,fridge,0,16.33384908,18.29400203
22,calf,annoy,18,1.415370715,24,5,0,6,0.15,,,,,strange,0,5.05286126,6.948870718
22,chicken,beet,32,2.16545146,25,5,0,16,0.4,,,,,skip,0,9.778214728,13.68223747
22,bullet,walkway,27,1.215250825,26,5,1,15,0.375,walkway,1,1.765437797,3.56538943,walkway,1,3.21115317,4.923184518
22,bias,sirloin,15,1.332253209,27,5,1,3,0.075,next,0,7.06554258,36.95316037,skip,0,6.471727058,8.399663932
22,anger,decay,88,0.898363969,28,5,0,38,0.95,,,,,skip,0,9.930799449,10.85880881
22,pea,bathtub,82,1.565400335,29,5,1,31,0.775,shower,0,9.713199893,11.68139241,bedroom,0,11.43925214,13.60727104
22,fan,feature,59,0.931801744,30,5,0,18,0.45,,,,,bold,0,7.571590039,8.499584967
22,remind,foam,22,1.715377675,31,5,0,14,0.35,,,,,skip,0,2.371406065,3.57142037
22,prison,loaf,79,1.098642302,32,5,0,28,0.7,,,,,loaf,1,3.635603636,4.78754528
22,want,ascent,14,1.382261372,33,5,1,1,0.025,next,0,2.462493237,3.55050546,skip,0,3.61030232,5.858659667
22,forest,knob,64,0.89848232,34,5,1,19,0.475,knob,1,2.736386056,3.720350652,knob,1,2.255218547,3.432764282
22,replace,roach,76,1.448907597,35,5,1,25,0.625,next,0,3.783162184,6.343148534,skip,0,2.487813608,3.703850957
22,collect,loyalty,87,1.165470063,36,5,1,37,0.925,next,0,1.568198416,2.936228511,skip,0,4.082270251,6.212808493
22,knock,otter,39,0.831819417,37,5,1,17,0.425,otter,1,3.240862697,4.040825235,skip,0,6.438027572,7.24588575
22,bleach,ruin,86,1.198565935,38,5,0,36,0.9,,,,,pure,0,14.54923758,15.95719865
22,plant,worm,92,1.182129935,39,5,0,40,1,,,,,soil,0,7.072689204,7.864753985
22,smother,surgery,80,1.315558377,40,5,0,30,0.75,,,,,surgeru,0,2.904194659,4.73622099
23,grip,beach,60,3.466104378,1,5,1,26,0.65,beach,1,1.567860684,2.390001639,beach,1,2.726046883,3.950024552
23,visit,glove,54,4.782990592,2,5,0,19,0.475,,,,,glove,1,2.2972355,3.825208774
23,glue,force,54,4.082949442,3,5,0,17,0.425,,,,,force,1,4.0405215,4.912511534
23,forest,knob,53,4.149630627,4,5,0,13,0.325,,,,,knob,1,2.363710132,3.755710584
23,caring,skirt,95,1.64867468,5,5,0,39,0.975,,,,,skirt,1,0.973691174,1.50172667
23,shrink,mafia,53,2.21542338,6,5,0,15,0.375,,,,,mafia,1,3.778364008,4.474382195
23,need,faucet,39,4.182759535,7,5,1,4,0.1,faucet,1,2.350592123,3.544317865,skip,0,3.935486333,22.08699903
23,remind,foam,47,6.400005324,8,5,0,7,0.175,,,,,foam,1,2.822377978,3.638372071
23,anger,decay,52,3.549044197,9,5,0,11,0.275,,,,,decay,1,1.493349105,2.293370017
23,climax,saucer,81,1.281854393,10,5,0,33,0.825,,,,,saucer,1,1.842493115,2.690496435
23,pork,emperor,91,1.415332548,11,5,1,38,0.95,emperor,1,1.259058563,2.062224269,emperor,1,0.911402116,2.455240805
23,prison,loaf,76,1.598683196,12,5,1,30,0.75,loaf,1,1.450088539,2.19415296,loaf,1,1.021994957,1.718000636
23,plant,worm,39,1.815386624,13,5,0,5,0.125,,,,,worm,1,1.569957961,2.073974029
23,fan,feature,52,2.532550465,14,5,1,12,0.3,feature,1,1.320414927,2.187885823,feature,1,0.863937372,1.743937731
23,fee,chowder,54,2.215770414,15,5,1,20,0.5,chowder,1,1.387930982,2.526367039,chowder,1,2.62717686,3.531170669
23,collect,loyalty,50,6.91718687,16,5,0,9,0.225,,,,,skip,0,5.797880976,6.629874551
23,bacon,feud,52,2.815932833,17,5,1,10,0.25,feud,1,2.571468617,3.667489883,feud,1,1.219769322,2.004086469
23,find,clown,55,2.048810864,18,5,1,24,0.6,clown,1,1.875027383,2.566169134,clown,1,3.953588545,4.62069451
23,link,crisis,42,7.100242763,19,5,1,6,0.15,crisis,1,1.564836164,2.431102384,crisis,1,2.022461304,3.094484951
23,chicken,beet,71,2.632271715,20,5,0,29,0.725,,,,,beet,1,1.240125651,1.760148577
23,capital,figure,95,1.582182086,21,5,1,40,1,figure,1,1.142005503,1.830042552,figure,1,1.219556996,2.075584433
23,rock,milk,86,2.448923313,22,5,1,36,0.9,milk,1,1.736038701,2.608062091,milk,1,1.325811272,2.117907495
23,want,ascent,22,13.03534293,23,5,0,1,0.025,,,,,ascent,1,1.048987267,1.929048887
23,bias,sirloin,69,1.031865217,24,5,1,28,0.7,sirloin,1,8.523100366,11.02708372,sirloin,1,1.711490062,2.735508207
23,port,cinema,90,1.832127962,25,5,0,37,0.925,,,,,cinema,1,2.416214566,3.168245692
23,date,laugh,54,1.715654789,26,5,1,22,0.55,laugh,1,0.911136228,1.64750304,laugh,1,2.195966709,2.876000489
23,risk,zero,54,1.648939927,27,5,0,21,0.525,,,,,zero,1,1.845330325,2.717358206
23,pea,bathtub,83,2.132178221,28,5,0,35,0.875,,,,,bathtub,1,1.854314398,2.854344226
23,banner,glide,53,3.649334429,29,5,1,14,0.35,glide,1,1.46099124,2.725541407,glide,1,1.253425196,1.989446256
23,knock,otter,53,2.215503884,30,5,1,16,0.4,otter,1,1.64368278,2.699642799,otter,1,1.950223086,2.934224246
23,replace,roach,54,1.515424246,31,5,0,23,0.575,,,,,roach,1,2.855554996,3.535559268
23,calf,annoy,78,1.565578342,32,5,0,31,0.775,,,,,annoy,1,0.991731805,1.703770642
23,smother,surgery,78,2.165817096,33,5,1,32,0.8,surgery,1,1.218691657,2.12279259,surgery,1,1.26676387,2.146788605
23,bullet,walkway,81,1.915361574,34,5,1,34,0.85,walkway,1,2.043273075,2.990381837,walkway,1,1.207003157,2.1270282
23,biology,temper,47,4.382962816,35,5,1,8,0.2,temper,1,1.072510521,1.720518716,skip,0,12.46515789,13.09717719
23,copy,bedroom,54,3.466029967,36,5,1,18,0.45,bedroom,1,2.168108418,3.272137443,bedroom,1,0.967912193,1.911926195
23,bleach,ruin,32,1.682195525,37,5,0,3,0.075,,,,,ruin,1,1.103120066,1.702906906
23,nerve,bumper,68,1.315203966,38,5,0,27,0.675,,,,,bumper,1,3.359199012,4.305830202
23,mill,feast,55,3.015757969,39,5,0,25,0.625,,,,,feast,1,1.16970022,2.036637094
23,process,joker,24,6.166878084,40,5,1,2,0.05,joker,1,11.62607803,12.42611914,joker,1,0.954448112,1.578482743
24,glue,force,65,1.048581194,1,5,1,19,0.475,force,1,2.114206603,2.906236449,force,1,1.799128369,3.295236562
24,bullet,walkway,100,0.865190299,2,5,0,40,1,,,,,walkway,1,2.636430058,6.756408299
24,link,crisis,65,25.07224956,3,5,0,18,0.45,,,,,SKIP,0,6.593875167,8.036259491
24,climax,saucer,93,2.165562801,4,5,0,36,0.9,,,,,cinema,0,4.96199699,14.08207562
24,bias,sirloin,61,13.40222629,5,5,1,17,0.425,person,0,5.337048949,7.769028607,pork,0,9.514823762,10.26681457
24,fan,feature,46,1.715395826,6,5,0,8,0.2,,,,,SKIP,0,7.318323758,8.654291828
24,mill,feast,30,0.99848292,7,5,0,4,0.1,,,,,milk,0,8.490067136,9.858046553
24,find,clown,45,0.665160599,8,5,1,7,0.175,glove,0,1.840247326,4.656264032,SKIP,0,4.234985079,5.363002881
24,prison,loaf,59,1.26528049,9,5,1,15,0.375,loaf,1,2.125933982,4.721279402,loaf,1,2.232460569,3.040894442
24,plant,worm,70,0.998137488,10,5,1,23,0.575,worm,1,2.325576554,3.450349474,worm,1,1.468045745,2.444362942
24,want,ascent,88,0.898505436,11,5,1,33,0.825,roaches,0,5.796331553,13.01232619,SKIP,0,3.089396735,4.465192801
24,calf,annoy,42,0.931814479,12,5,1,5,0.125,feud,0,7.352007421,8.623981985,SKIP,0,4.739872771,6.459884625
24,chicken,beet,26,1.115333668,13,5,0,2,0.05,,,,,SKIP,0,2.837481301,3.949433773
24,replace,roach,75,1.131952267,14,5,0,24,0.6,,,,,roach,1,5.084066428,10.61987496
24,bacon,feud,86,1.115231674,15,5,0,32,0.8,,,,,SKIP,0,2.663215658,3.695189157
24,copy,bedroom,88,1.081805242,16,5,0,34,0.85,,,,,SKIP,0,2.185982439,3.20193936
24,port,cinema,81,1.498647778,17,5,1,29,0.725,cinema,1,4.535604228,6.103673642,cinema,1,6.257954245,8.537900695
24,forest,knob,80,4.882962584,18,5,0,28,0.7,,,,,SKIP,0,16.10374837,17.05534551
24,shrink,mafia,96,1.498688832,19,5,1,37,0.925,mafia,1,5.635311652,16.39430508,mafia,1,3.439129498,4.279046466
24,grip,beach,59,1.56535984,20,5,0,16,0.4,,,,,glove,0,4.701785407,6.851413739
24,rock,milk,51,2.131934947,21,5,1,13,0.325,paper,0,5.739246053,22.70700795,SKIP,0,3.11204741,3.99169904
24,biology,temper,100,1.582064396,22,5,1,39,0.975,aggresion ,0,9.036587603,18.51657273,SKIP,0,19.01767382,19.88965217
24,collect,loyalty,85,1.215261117,23,5,1,31,0.775,roaches,0,11.06165149,14.7396226,SKIP,0,2.598006243,7.101784509
24,remind,foam,79,0.68171473,24,5,0,26,0.65,,,,,SKIP,0,2.671871993,3.473312225
24,smother,surgery,77,1.515352976,25,5,1,25,0.625,surgery,1,2.113823003,3.681838534,surgery,1,2.617151598,6.217144157
24,need,faucet,45,6.083420787,26,5,0,6,0.15,,,,,SKIP,0,8.183191397,8.878878015
24,bleach,ruin,49,2.365418342,27,5,0,10,0.25,,,,,stain,0,5.855538079,6.855595811
24,date,laugh,51,0.364883034,28,5,0,12,0.3,,,,,laughter,0,1.67568522,4.12379692
24,banner,glide,57,1.398482664,29,5,0,14,0.35,,,,,SKIP,0,9.895098581,11.81535054
24,pork,emperor,70,2.465647604,30,5,0,22,0.55,,,,,fight,0,6.259234622,7.555416392
24,nerve,bumper,68,1.648728026,31,5,0,20,0.5,,,,,SKIP,0,3.843299126,6.883214362
24,knock,otter,68,1.06523796,32,5,1,21,0.525,door,0,6.902629135,12.66254275,SKIP,0,2.774635388,4.014481216
24,process,joker,79,0.915120507,33,5,1,27,0.675,pork,0,11.15061074,12.82258794,SKIP,0,5.012563858,5.99497343
24,capital,figure,88,1.098572983,34,5,1,35,0.875, ,0,8.901389491,14.40491053,consoulmen ,0,8.473915208,15.9375085
24,caring,skirt,24,2.148840284,35,5,1,1,0.025,mother,0,1.954352897,2.874403111,SKIP,0,3.235951135,5.275858032
24,visit,glove,47,1.115105304,36,5,1,9,0.225,beef,0,15.77497825,17.23100411,SKIP,0,3.60946645,5.113118988
24,pea,bathtub,51,0.76510184,37,5,1,11,0.275,bathtub,1,2.303711361,6.239620672,bathtub,1,1.806162102,4.870496871
24,risk,zero,100,0.998537125,38,5,0,38,0.95,,,,,zero,1,2.479110484,3.294902997
24,anger,decay,83,0.998544181,39,5,0,30,0.75,,,,,biology,0,5.245281978,7.85294461
24,fee,chowder,29,2.348953375,40,5,1,3,0.075,pork,0,7.673730977,10.15031727,SKIP,0,3.032982213,4.225148436
25,bleach,ruin,21,3.265827007,1,5,0,15,0.375,,,,,skip,0,7.178782116,8.409678654
25,smother,surgery,21,1.632271715,2,5,1,36,0.9,soar,0,5.308573758,12.93245764,skip,0,4.678283536,5.824142334
25,want,ascent,21,1.998840227,3,5,1,38,0.95,wish,0,8.757441263,10.38939224,beach,0,3.368468538,4.858647511
25,calf,annoy,21,25.02216655,4,5,1,32,0.8,milk,0,6.878081089,8.622086174,skip,0,3.488300756,4.709163459
25,mill,feast,21,4.33293124,5,5,1,16,0.4,feast,1,1.582700713,4.718660706,feast,1,2.216666223,3.67328041
25,remind,foam,14,1.865489082,6,5,0,1,0.025,,,,,rachet,0,6.061454829,8.181458319
25,bullet,walkway,21,3.315884884,7,5,0,19,0.475,,,,,skip,0,6.977336633,8.105391181
25,plant,worm,19,2.749278269,8,5,1,2,0.05,worm,1,5.63797821,7.222042041,worm,1,1.490878493,2.890896005
25,pea,bathtub,21,2.532170396,9,5,0,25,0.625,,,,,bathtub,1,5.832733508,9.128630265
25,pork,emperor,21,3.515713868,10,5,0,27,0.675,,,,,pie,0,11.47599773,12.24998789
25,link,crisis,21,2.099040012,11,5,1,34,0.85,pebble,0,8.876356824,13.38700438,skip,0,4.145274421,5.161288015
25,need,faucet,21,3.432801311,12,5,1,18,0.45,bacon,0,9.2562159,11.47219607,mill,0,7.700052376,9.475458256
25,collect,loyalty,20,3.71600054,13,5,0,7,0.175,,,,,souls,0,7.197712784,8.429180868
25,glue,force,21,4.716238525,14,5,1,20,0.5,force,1,1.419017779,2.995047871,force,1,1.344246726,2.461470417
25,banner,glide,21,3.132615061,15,5,0,31,0.775,,,,,skip,0,2.748079687,3.876033845
25,bacon,feud,21,1.98203859,16,5,0,35,0.875,,,,,bed,0,9.436764618,10.57288658
25,replace,roach,21,3.532762149,17,5,0,13,0.325,,,,,skip,0,2.289693767,3.625710145
25,biology,temper,21,3.816025846,18,5,0,17,0.425,,,,,angry,0,8.776329594,10.42432079
25,bias,sirloin,22,2.848778534,19,5,1,40,1,zero,0,12.78501987,14.48094569,zero,0,3.474361347,4.786377219
25,nerve,bumper,21,4.016070685,20,5,1,26,0.65, cycle,0,10.98796447,17.21181063,skip,0,1.806433983,5.782428025
25,grip,beach,20,2.182221665,21,5,1,8,0.2,beach,1,3.331317629,8.051260949,beach,1,3.520782424,4.904795643
25,anger,decay,21,3.182529569,22,5,0,23,0.575,,,,,skip,0,3.526840442,5.854776255
25,port,cinema,21,3.899288965,23,5,0,29,0.725,,,,,skip,0,3.717105147,5.421127886
25,date,laugh,21,5.416621256,24,5,1,14,0.35,laugh,1,3.004103467,6.239699716,laugh,1,2.211411001,3.563421408
25,rock,milk,20,2.88245301,25,5,0,3,0.075,,,,,salt,0,4.406096058,6.334136558
25,copy,bedroom,21,2.415610945,26,5,1,24,0.6,beach,0,5.104615006,7.880627394,skip,0,4.171345584,5.179368418
25,fee,chowder,20,3.566164964,27,5,0,5,0.125,,,,,skip,0,1.435364294,2.435385463
25,capital,figure,21,3.649289206,28,5,1,22,0.55,figure,1,5.93428711,8.726329449,figure,1,2.921808322,4.577833578
25,visit,glove,21,3.632552678,29,5,1,30,0.75,drain,0,7.08352548,27.21911791,skip,0,4.160960867,5.187638216
25,caring,skirt,21,2.165523946,30,5,1,10,0.25,mill,0,17.23149663,19.16883841,skip,0,1.423467959,2.447557308
25,process,joker,21,4.032748839,31,5,1,12,0.3,joker,1,9.846959653,12.3589142,skip,0,4.458859003,5.626911292
25,shrink,mafia,20,3.615920709,32,5,0,9,0.225,,,,,skip,0,2.402941,3.46693604
25,fan,feature,21,2.098745258,33,5,0,33,0.825,,,,,feauture,0,1.348036195,3.780086669
25,prison,loaf,21,1.982237766,34,5,0,11,0.275,,,,,skip,0,1.764911473,3.38093193
25,chicken,beet,21,2.582538421,35,5,1,28,0.7,beet,1,2.179254236,3.595271551,beet,1,1.444895539,2.404930191
25,forest,knob,21,2.715642601,36,5,0,21,0.525,,,,,skip,0,1.572148573,2.665749582
25,risk,zero,20,2.382235392,37,5,1,6,0.15,zero,1,2.694320864,4.414338273,zero,1,1.648944096,3.568908521
25,find,clown,20,2.732347056,38,5,1,4,0.1,joker,0,2.472748056,4.07274626,favorite,0,8.038813593,11.63077164
25,knock,otter,22,6.216644413,39,5,0,39,0.975,,,,,skip,0,1.210959408,2.594965892
25,climax,saucer,21,4.066070187,40,5,0,37,0.925,,,,,need,0,1.497965105,2.817944796
26,port,cinema,7,1.065183756,1,5,1,3,0.075,skip,0,1.74810349,2.500129256,skip,0,3.53857424,4.552425532
26,remind,foam,3,1.982179925,2,5,1,1,0.025,skip,0,2.681289755,3.529281886,skip,0,1.725368461,2.741392416
26,knock,otter,20,1.081640704,3,5,0,18,0.45,,,,,skip,0,1.819174029,3.559453813
26,glue,force,56,1.431994091,4,5,0,38,0.95,,,,,skip,0,1.421398266,3.157422209
26,collect,loyalty,7,0.848486705,5,5,0,4,0.1,,,,,skip,0,0.74556615,1.785598454
26,fee,chowder,50,0.515277924,6,5,1,35,0.875,chowder,1,1.662691575,3.358710476,chowder,1,2.881553592,6.473550211
26,shrink,mafia,13,1.298643737,7,5,0,12,0.3,,,,,skip,0,1.538169151,2.413007821
26,prison,loaf,27,1.048523782,8,5,1,21,0.525,skip,0,3.177648443,4.962222147,skip,0,1.846778146,2.998804618
26,smother,surgery,32,0.581702285,9,5,1,23,0.575,skip,0,2.312890496,4.696904452,skip,0,0.921027175,1.881049075
26,need,faucet,8,2.315672236,10,5,1,5,0.125,skip,0,1.077825874,1.885852734,skip,0,1.42956548,2.597597305
26,climax,saucer,4,0.981849567,11,5,0,2,0.05,,,,,skip,0,0.902534197,1.790351757
26,link,crisis,36,1.815698857,12,5,1,27,0.675,skip,0,3.919458136,5.751470573,skip,0,1.282073569,2.338052531
26,grip,beach,10,0.731779968,13,5,0,6,0.15,,,,,skip,0,0.917109389,1.797163542
26,visit,glove,26,2.298766258,14,5,0,20,0.5,,,,,skip,0,0.860404602,2.19613629
26,bias,sirloin,16,2.498916555,15,5,1,13,0.325,skip,0,3.742232102,6.57423171,skip,0,0.781863166,1.70155544
26,bullet,walkway,39,0.698302218,16,5,1,29,0.725,walkway,1,2.276774695,4.030448081,walkway,1,1.709173875,4.221184143
26,bacon,feud,46,1.482262675,17,5,0,32,0.8,,,,,skip,0,1.687231063,2.458387431
26,fan,feature,17,1.381338699,18,5,0,16,0.4,,,,,skip,0,0.880656815,2.272659014
26,forest,knob,47,0.68200692,19,5,1,33,0.825,knob,1,2.119611961,3.191478566,knob,1,1.574477714,3.310537899
26,process,joker,40,0.748467525,20,5,0,30,0.75,,,,,skip,0,2.234644137,3.042677091
26,biology,temper,34,0.66513943,21,5,1,25,0.625,temper,1,1.965580249,2.813611189,skip,0,1.945408861,7.385316463
26,mill,feast,11,0.848490554,22,5,1,7,0.175,skip,0,2.779470478,3.707491616,skip,0,0.786445838,1.481288601
26,calf,annoy,29,0.615328215,23,5,0,22,0.55,,,,,annoy,1,1.367261931,2.487209061
26,chicken,beet,68,0.815360161,24,5,1,39,0.975,beet,1,2.154559643,6.21045361,beet,1,0.868315868,2.908333419
26,anger,decay,20,1.098568172,25,5,1,17,0.425,skip,0,2.724301374,6.068262498,skip,0,1.960589602,3.40860412
26,find,clown,12,1.098727257,26,5,1,9,0.225,skip,0,2.270728827,3.99751077,skip,0,0.744975355,1.52101364
26,capital,figure,16,0.965032433,27,5,1,15,0.375,figure,1,3.205332423,7.797291195,figure,1,4.204638351,6.508656015
26,nerve,bumper,11,0.915295308,28,5,0,8,0.2,,,,,skip,0,0.834245719,2.314290828
26,bleach,ruin,46,0.415252329,29,5,1,31,0.775,reuin,0,3.64206378,8.282651535,skip,0,1.510814566,2.562086091
26,pork,emperor,13,1.248821938,30,5,1,11,0.275,skip,0,3.73339423,5.909403393,skip,0,1.415110243,2.239137965
26,rock,milk,32,0.898303372,31,5,0,24,0.6,,,,,skip,0,0.856438063,1.664468451
26,risk,zero,54,1.415506031,32,5,1,37,0.925,zero,1,1.609114282,2.641171173,zero,1,1.572883658,3.126484365
26,banner,glide,21,1.882340998,33,5,1,19,0.475,skip,0,3.057310978,4.206099944,skip,0,0.816575428,1.552607389
26,want,ascent,16,1.481863359,34,5,0,14,0.35,,,,,skip,0,0.827311414,3.339244064
26,plant,worm,70,0.648403763,35,5,0,40,1,,,,,worm,1,2.687860988,3.46472613
26,copy,bedroom,50,0.481707481,36,5,0,34,0.85,,,,,skip,0,0.896914587,1.659706168
26,date,laugh,54,0.581819675,37,5,0,36,0.9,,,,,skip,0,0.946283828,4.354697752
26,replace,roach,38,0.748708077,38,5,0,28,0.7,,,,,skip,0,0.766192983,1.654228964
26,caring,skirt,12,0.915414301,39,5,0,10,0.25,,,,,skip,0,0.899564184,2.011808205
26,pea,bathtub,35,0.915425847,40,5,0,26,0.65,,,,,skip,0,0.702298264,1.750299888
28,mill,feast,50,4.999622499,1,5,1,9,0.225,feast,1,3.054072795,8.013960488,feast,1,3.07605831,5.609954677
28,risk,zero,100,2.081988639,2,5,1,37,0.925,zero,1,3.217502905,4.185514731,zero,1,1.435649839,2.164119683
28,climax,saucer,38,5.883100359,3,5,0,4,0.1,,,,,skip,0,22.12319689,23.14719307
28,smother,surgery,76,2.332341845,4,5,0,26,0.65,,,,,surgury,0,2.30748546,11.67527746
28,bacon,feud,40,3.299139701,5,5,1,5,0.125, ,0,40.13183868,41.9705671,skip,0,14.96930534,32.62493766
28,nerve,bumper,63,4.81621273,6,5,0,20,0.5,,,,,bumpers,0,2.07646564,5.276415541
28,remind,foam,50,4.199385093,7,5,0,8,0.2,,,,,foam,1,3.791174811,6.695173726
28,copy,bedroom,57,2.265591168,8,5,0,12,0.3,,,,,bedroom,1,1.474110379,3.554187457
28,find,clown,100,2.148815009,9,5,0,36,0.9,,,,,clown,1,1.785583496,3.033593436
28,forest,knob,59,2.382221073,10,5,1,15,0.375,knob,1,1.586594827,2.354635904,knob,1,1.669155972,2.453176863
28,shrink,mafia,71,2.598971542,11,5,1,21,0.525,mafia,1,1.982173092,3.094134427,mafia,1,1.666408585,3.354380922
28,collect,loyalty,97,1.698327481,12,5,0,34,0.85,,,,,loyalty,1,1.484242613,3.780369361
28,date,laugh,100,1.481953551,13,5,0,40,1,,,,,laugh,1,1.659120278,2.515174297
28,biology,temper,81,3.699117122,14,5,0,28,0.7,,,,,temper,1,1.850304262,3.458300873
28,caring,skirt,61,4.316060543,15,5,1,17,0.425,skirt,1,2.895468093,4.27920302,skirt,1,1.594376098,3.5175692
28,link,crisis,82,2.732288154,16,5,1,29,0.725,crisis,1,1.709776639,7.309647833,crisis,1,3.677377929,5.304279747
28,fee,chowder,41,3.015664214,17,5,0,6,0.15,,,,,skip,0,31.72173255,32.60970515
28,visit,glove,62,2.999073727,18,5,1,19,0.475,glove,1,1.905472997,3.333309172,glove,1,1.470433511,3.798032375
28,banner,glide,78,3.899189864,19,5,1,27,0.675,glider,0,1.619313949,2.531334683,glider,0,1.513322392,2.897382862
28,port,cinema,50,13.35218808,20,5,0,10,0.25,,,,,cinema,1,1.752486553,3.792462549
28,calf,annoy,38,7.283554708,21,5,1,3,0.075, ,0,26.9826404,30.86273967,otter,0,7.553081895,9.497056164
28,glue,force,82,3.816010027,22,5,0,30,0.75,,,,,force,1,1.538865463,2.994883688
28,plant,worm,100,1.364783854,23,5,0,38,0.95,,,,,worm,1,1.249806679,1.977822046
28,pork,emperor,83,1.632042827,24,5,1,31,0.775, ,0,33.445012,33.59767258,saucer,0,6.323019458,8.050965226
28,bleach,ruin,88,2.098804922,25,5,1,33,0.825,ruin,1,1.907131822,2.69121269,ruin,1,1.350200505,2.28630402
28,replace,roach,61,5.449712961,26,5,0,16,0.4,,,,,roach,1,8.457234761,10.07332215
28,prison,loaf,71,1.548488696,27,5,0,22,0.55,,,,,loaf,1,1.875488113,3.82743449
28,bias,sirloin,25,6.49999984,28,5,1,1,0.025,sirloins,0,7.433445771,12.06330217,sirloin,1,3.428907418,7.413882742
28,pea,bathtub,54,11.15138824,29,5,1,11,0.275,bathtub,1,2.854959041,7.209710408,bathtub,1,1.837513804,4.06949614
28,bullet,walkway,86,1.782140762,30,5,0,32,0.8,,,,,walkway,1,1.589727413,3.885663967
28,want,ascent,58,2.915704017,31,5,0,14,0.35,,,,,skip,0,34.31761577,35.18956686
28,fan,feature,76,1.381686734,32,5,1,25,0.625,feature,1,1.412586024,2.25260378,feature,1,0.977846742,3.345856195
28,chicken,beet,62,2.115478479,33,5,0,18,0.45,,,,,beet,1,4.468357735,5.820361394
28,need,faucet,37,3.315598048,34,5,0,2,0.05,,,,,faucet,1,4.577723068,6.617707083
28,grip,beach,73,3.115718065,35,5,1,23,0.575,beach,1,2.474357021,4.903234932,beach,1,1.478667334,2.494719955
28,knock,otter,46,3.199147752,36,5,1,7,0.175,otter,1,6.987459071,8.891422063,otter,1,4.320217225,7.00819726
28,anger,decay,99,3.64915322,37,5,1,35,0.875,decay,1,1.760519277,2.856527098,decay,1,1.905675058,3.025773356
28,process,joker,100,5.266288118,38,5,1,39,0.975,joker,1,3.07767576,3.877683201,joker,1,1.231326761,2.255331603
28,rock,milk,75,3.53254737,39,5,0,24,0.6,,,,,milk,1,1.363766814,2.374273022
28,capital,figure,58,4.04937151,40,5,1,13,0.325,figure,1,1.415868392,2.331570485,figure,1,1.260817398,2.516813236
30,need,faucet,49,1.69857252,1,5,1,25,0.625,skip,0,32.97458073,34.83049716,faucet,1,7.006303759,8.989631223
30,anger,decay,62,3.332477194,2,5,1,33,0.825,skip,0,37.59700482,89.3314624,skip,0,12.73203473,13.82004681
30,port,cinema,47,2.732616584,3,5,0,18,0.45,,,,,cinema,1,2.289327293,4.233277269
30,shrink,mafia,49,2.182184253,4,5,1,21,0.525,mafia,1,1.778028661,3.634002497,mafia,1,2.624649515,4.136645389
30,fee,chowder,45,3.14910912,5,5,1,13,0.325,chowder ,0,10.1977561,30.90922203,chowder,1,2.8038278,4.595815605
30,visit,glove,15,4.832906493,6,5,1,1,0.025,glove,1,17.783823,20.11979264,glove,1,1.748742872,3.712126606
30,find,clown,32,8.867414656,7,5,1,5,0.125,faucet,0,17.68576923,20.18174389,clown,1,8.368450797,9.688492159
30,pork,emperor,49,1.715304129,8,5,0,26,0.65,,,,,emporer,0,8.916030485,16.46803794
30,want,ascent,23,5.483325962,9,5,1,3,0.075,ascent,1,7.406975786,9.518884842,ascent,1,9.65549701,11.60756419
30,collect,loyalty,48,4.782904103,10,5,0,20,0.5,,,,,loyalty,1,5.091764058,7.581262497
30,risk,zero,54,1.798780001,11,5,0,30,0.75,,,,,zero,1,1.419146443,2.555166074
30,glue,force,38,9.784350924,12,5,1,7,0.175,force,1,4.067959515,9.019456225,force,1,18.99743892,20.4214442
30,chicken,beet,46,3.465818823,13,5,1,17,0.425,beet,1,4.404800263,5.57277931,beet,1,2.155345623,3.160429941
30,climax,saucer,63,4.382589594,14,5,0,34,0.85,,,,,saucer,1,1.91700328,3.717027463
30,date,laugh,78,1.815285815,15,5,0,36,0.9,,,,,laugh,1,1.326976332,2.543007907
30,banner,glide,82,2.648948273,16,5,1,39,0.975,glide,1,2.001353488,3.545309925,glide,1,1.193870593,2.001901007
30,pea,bathtub,80,3.132362115,17,5,0,38,0.95,,,,,bathtub,1,1.802385447,4.938473717
30,remind,foam,32,6.850138765,18,5,0,6,0.15,,,,,foam,1,3.022848322,4.470876785
30,rock,milk,45,1.915662964,19,5,0,14,0.35,,,,,milk,1,1.418082559,2.538109295
30,biology,temper,44,1.41510024,20,5,0,12,0.3,,,,,temper,1,1.557181263,2.837200777
30,grip,beach,46,7.333598471,21,5,0,16,0.4,,,,,skip,0,16.22184397,17.2698419
30,prison,loaf,73,2.232129553,22,5,1,35,0.875,loaf,1,2.541672507,4.421664334,loaf,1,1.543427431,2.479442701
30,bleach,ruin,86,1.698668098,23,5,0,40,1,,,,,ruin,1,1.635575091,2.629853147
30,forest,knob,47,1.5486744,24,5,1,19,0.475,knob,1,1.830195348,3.904797216,knob,1,1.620565254,3.423562346
30,replace,roach,49,4.716211479,25,5,1,23,0.575,skip,0,27.31054171,32.15045587,skip,0,22.43695856,23.58895152
30,smother,surgery,62,3.282448825,26,5,0,32,0.8,,,,,surgery,1,2.000329397,3.6003412
30,process,joker,50,7.117033386,27,5,0,28,0.7,,,,,joker,1,3.168455415,4.928464807
30,knock,otter,24,5.799891015,28,5,0,4,0.1,,,,,skip,0,19.65132423,20.77112324
30,copy,bedroom,42,4.216129532,29,5,0,10,0.25,,,,,bedroom,1,7.414532966,10.64051155
30,bullet,walkway,58,1.015183117,30,5,1,31,0.775,walkway,1,1.94446531,3.648461723,walkway,1,1.020573657,2.563329145
30,nerve,bumper,50,2.249108767,31,5,1,27,0.675,bumper,1,2.102800918,5.702736258,bumper,1,1.847893497,3.59191705
30,capital,figure,46,2.648905295,32,5,1,15,0.375,figure,1,3.12870834,5.040677437,figure,1,2.878503327,4.07852533
30,link,crisis,23,8.800694769,33,5,0,2,0.05,,,,,skip,0,51.97373295,52.94969212
30,calf,annoy,49,1.715309581,34,5,0,22,0.55,,,,,annoy,1,1.62386788,2.787347065
30,bacon,feud,52,2.882606753,35,5,1,29,0.725,feud,1,4.062888105,12.39350281,feud,1,1.331623807,2.987639128
30,fan,feature,42,4.766246262,36,5,1,11,0.275,feature,1,4.634119885,6.744408284,function,0,19.17082277,23.1547869
30,mill,feast,40,8.150742285,37,5,1,9,0.225,feast,1,4.360417413,6.032379146,feast,1,22.80532211,24.10930579
30,bias,sirloin,49,3.06565602,38,5,0,24,0.6,,,,,sirloin,1,1.661351738,3.725285792
30,caring,skirt,38,2.11535628,39,5,0,8,0.2,,,,,skirt,1,2.258844475,3.158614571
30,plant,worm,79,3.515818326,40,5,1,37,0.925,worm,1,1.946935906,3.298954639,worm,1,1.001056827,2.257069518
31,calf,annoy,25,5.416539363,1,5,0,3,0.075,,,,,  ,0,6.74604594,8.62357102
31,remind,foam,25,1.665286986,2,5,1,4,0.1, ,0,18.03327142,19.64135014,chowder,0,5.841241347,7.697221918
31,grip,beach,51,1.865307449,3,5,1,16,0.4,beach,1,2.186799903,4.218842922,beach,1,1.491302879,2.473546532
31,want,ascent,75,5.599754448,4,5,0,35,0.875,,,,, ,0,28.90688486,31.83481549
31,bullet,walkway,84,1.48218095,5,5,1,40,1,walkway,1,1.208925578,3.898489707,walkway,1,2.08863003,4.624635849
31,chicken,beet,55,2.365528272,6,5,1,20,0.5,beet,1,1.356797315,2.46889047,beet,1,1.12557415,1.861602356
31,smother,surgery,63,2.615748054,7,5,0,27,0.675,,,,,surgery,1,2.647780809,4.519815284
31,find,clown,59,1.481784846,8,5,0,23,0.575,,,,,happy,0,5.228766039,6.500775689
31,glue,force,64,1.298546989,9,5,1,28,0.7,force,1,1.401933563,2.720482663,force,1,1.407079061,2.967113457
31,prison,loaf,54,1.465251449,10,5,1,18,0.45,loaf,1,1.706904808,2.47838509,loaf,1,3.133469922,5.821432959
31,climax,saucer,65,1.148786143,11,5,0,29,0.725,,,,,cinema,0,20.9042555,22.88821699
31,visit,glove,55,1.915191488,12,5,0,21,0.525,,,,,glove,1,8.675843548,9.971812817
31,plant,worm,73,1.731828225,13,5,1,34,0.85,worm,1,1.486518525,2.302588208,worm,1,1.706239931,2.4468546
31,biology,temper,82,1.865394688,14,5,0,39,0.975,,,,,temper,1,9.074504045,10.26649274
31,copy,bedroom,48,1.865530678,15,5,0,15,0.375,,,,,bedroom,1,1.851770647,3.424925213
31,capital,figure,69,1.231645568,16,5,0,31,0.775,,,,,feature,0,1.711719311,3.031715873
31,knock,otter,38,3.549487775,17,5,1,8,0.2,otter,1,3.21124094,8.94720051,forest,0,10.33400099,11.52597911
31,fan,feature,67,1.732021305,18,5,1,30,0.75,feature,1,1.128569463,2.45652434,feature,1,2.640751333,4.176728928
31,anger,decay,71,1.165285222,19,5,0,33,0.825,,,,,decay,1,3.423835688,4.80784035
31,collect,loyalty,75,1.081676567,20,5,1,36,0.9,loyalty,1,10.39302267,16.4793553,loyalty,1,2.483362846,4.602877412
31,port,cinema,44,2.482199873,21,5,0,13,0.325,,,,, ,0,17.9373425,19.68132453
31,risk,zero,76,1.432154505,22,5,0,37,0.925,,,,,zero,1,1.914186636,3.442275194
31,need,faucet,43,3.066032238,23,5,1,12,0.3,facuey,0,2.648355881,8.012724709,laugh,0,18.81825836,20.21020786
31,date,laugh,80,1.648676934,24,5,1,38,0.95,laugh,1,1.244245512,2.964048224,laugh,1,0.572685977,1.546936676
31,bias,sirloin,40,1.18195942,25,5,0,9,0.225,,,,,bleach,0,5.732079679,6.900253731
31,banner,glide,23,6.666762672,26,5,1,2,0.05,glide,1,4.258040823,5.459917681, ,0,3.716934087,4.717676581
31,mill,feast,26,1.998769673,27,5,0,5,0.125,,,,,rock,0,1.14336706,4.391273725
31,process,joker,55,2.548907893,28,5,0,19,0.475,,,,, ,0,12.38368457,12.97562984
31,bleach,ruin,42,3.91597696,29,5,1,10,0.25, ,0,15.06563902,29.44925175,knock,0,2.939793853,8.131677674
31,forest,knob,45,3.482603995,30,5,1,14,0.35,knob,1,7.708576141,12.59648587, ,0,9.277254896,9.911940552
31,fee,chowder,22,1.531868701,31,5,0,1,0.025,,,,, ,0,10.93107733,12.4749616
31,link,crisis,61,2.132089172,32,5,1,24,0.6,crisis,1,1.593419356,3.361430284, ,0,8.65603965,9.040074461
31,bacon,feud,28,4.749553141,33,5,1,6,0.15,feud,1,5.27177744,6.655776329,feud,1,2.721126692,3.48911581
31,shrink,mafia,33,1.515382452,34,5,0,7,0.175,,,,, ,0,14.06509987,14.3328239
31,pork,emperor,56,1.69861197,35,5,1,22,0.55,emperor,1,1.310288014,3.483782042, ,0,16.04910691,16.3371246
31,nerve,bumper,63,0.948538281,36,5,1,26,0.65,bumper,1,1.382760865,3.262809141, ,0,44.04072619,44.23268987
31,replace,roach,63,1.148789671,37,5,0,25,0.625,,,,,roach,1,2.485497315,15.0612017
31,pea,bathtub,42,2.182014586,38,5,0,11,0.275,,,,,bathtub,1,1.868163564,4.78812337
31,rock,milk,71,1.448711958,39,5,1,32,0.8,milk,1,1.699720097,3.005925838,milk,1,1.408886064,4.200854686
31,caring,skirt,52,5.5164646,40,5,0,17,0.425,,,,,skirt,1,3.344016799,4.815983086
32,anger,decay,35,0.748660224,1,5,1,7,0.175,decay,1,1.496318161,2.560651162,skip,0,4.652263997,87.63380172
32,plant,worm,51,1.015404743,2,5,0,16,0.4,,,,,soil,0,13.15396949,14.08172019
32,calf,annoy,51,0.732044398,3,5,1,17,0.425,annoy,1,10.76211396,13.10597263,annoy,1,6.145637199,12.72949586
32,fan,feature,52,1.71562005,4,5,0,22,0.55,,,,,skip,0,6.601012357,7.425008604
32,bias,sirloin,62,1.031792528,5,5,1,35,0.875,sirloin,1,3.182320244,5.303681583,sirloin,1,1.979196381,3.995530283
32,bullet,walkway,60,1.765496071,6,5,0,32,0.8,,,,,skip,0,7.129561807,7.913638505
32,collect,loyalty,38,2.53263942,7,5,1,11,0.275,loyalty,1,1.683289655,3.787657347,loyalty,1,1.386320345,4.490218165
32,glue,force,59,1.448831911,8,5,0,28,0.7,,,,,force,1,1.730096595,2.532789201
32,prison,loaf,56,15.98600455,9,5,1,25,0.625,loaf,1,1.328103055,2.000233493,loaf,1,1.278332555,2.078386822
32,climax,saucer,66,0.96537894,10,5,1,39,0.975,saucer,1,1.543737377,2.783751477,saucer,1,5.545010361,7.033084756
32,need,faucet,64,2.282153431,11,5,1,37,0.925,faucet,1,2.816307666,4.04335266,faucet,1,3.593651245,5.161561206
32,copy,bedroom,71,1.28181538,12,5,0,40,1,,,,,bedroom,1,1.898668033,3.496290257
32,pork,emperor,62,1.131801155,13,5,0,36,0.9,,,,,emperor,1,3.492683309,10.97253799
32,risk,zero,49,0.881792736,14,5,0,14,0.35,,,,,zero,1,13.11993793,14.29600615
32,bacon,feud,58,1.348818793,15,5,1,27,0.675,feud,1,1.691162335,2.635265218,feud,1,1.706387147,2.530415466
32,fee,chowder,60,0.498375013,16,5,0,30,0.75,,,,,skip,0,19.72962223,20.84139562
32,grip,beach,53,0.982045761,17,5,1,23,0.575,beach,1,1.62726649,2.725514622,beach,1,1.629355095,3.069406015
32,banner,glide,58,1.49861941,18,5,0,26,0.65,,,,,glide,1,4.69683672,5.688853387
32,bleach,ruin,60,0.88165867,19,5,1,29,0.725,ruin,1,2.135533189,4.695529097,ruin,1,1.405100147,2.077124422
32,rock,milk,37,1.398879877,20,5,1,9,0.225,milk,1,2.601454326,3.385577851,milk,1,16.76316082,19.48303281
32,knock,otter,33,1.098756491,21,5,1,5,0.125,door,0,7.074125581,7.682031104,skip,0,3.013727637,3.906358217
32,find,clown,60,1.548936438,22,5,1,31,0.775,i dont know,0,67.65131271,73.33102011,skip,0,1.630312479,4.126303814
32,biology,temper,52,64.68349621,23,5,1,19,0.475,temper,1,1.979206324,4.427191183,temper,1,1.46938119,2.413385929
32,pea,bathtub,66,3.299319632,24,5,0,38,0.95,,,,,bathtub,1,4.630276878,9.633390862
32,capital,figure,52,12.55169633,25,5,0,20,0.5,,,,,skip,0,11.5802097,12.23620798
32,replace,roach,35,1.749038366,26,5,0,6,0.15,,,,,skip,0,1.820764233,2.53276675
32,mill,feast,25,1.448613172,27,5,0,2,0.05,,,,,eat,0,2.863253162,4.263267146
32,smother,surgery,50,0.515128432,28,5,1,15,0.375,surgery,1,2.83673186,4.787791092,surgery,1,2.697019216,4.104950141
32,remind,foam,36,9.934477405,29,5,0,8,0.2,,,,,skip,0,3.449950944,4.083565677
32,nerve,bumper,55,40.99321973,30,5,0,24,0.6,,,,,skip,0,44.82063177,45.55860746
32,shrink,mafia,46,4.08296238,31,5,0,12,0.3,,,,,skip,0,1.381922472,1.957950152
32,date,laugh,62,5.48297893,32,5,0,34,0.85,,,,,laugh,1,1.197077108,1.869088875
32,process,joker,52,7.217226434,33,5,1,21,0.525,joker,1,1.651628627,2.379619939,joker,1,8.498156915,9.258190284
32,want,ascent,33,1.03174089,34,5,0,4,0.1,,,,,ascent,1,1.959417821,2.975438047
32,visit,glove,47,5.950004987,35,5,1,13,0.325,glove,1,1.24086468,2.21690891,skip,0,7.485030009,11.94093502
32,link,crisis,37,40.66001255,36,5,0,10,0.25,,,,,information,0,7.045712924,11.05362858
32,chicken,beet,61,1.198687181,37,5,1,33,0.825,beet,1,1.507939232,2.403933004,beet,1,1.278806596,3.518775793
32,caring,skirt,28,25.62205909,38,5,1,3,0.075,skirt,1,3.292302664,4.359813475,skirt,1,2.905686926,3.649623734
32,forest,knob,24,2.548925533,39,5,1,1,0.025,knob,1,2.626515658,3.402517615,tree,0,7.425059279,8.337085787
32,port,cinema,51,1.048953597,40,5,0,18,0.45,,,,,cinema,1,4.199803648,6.127760578
33,glue,force,58,1.348395748,1,5,0,21,0.525,,,,,gun,0,6.457374731,6.975051815
33,fee,chowder,56,2.032516098,2,5,1,10,0.25,bag,0,3.918116561,4.422165317,from,0,1.822768907,2.374813892
33,visit,glove,63,0.898643658,3,5,1,36,0.9,many,0,2.413974472,3.157936297,knee,0,3.124287724,3.772290079
33,remind,foam,61,3.499200256,4,5,1,34,0.85,skip,0,2.580593296,3.444644118,walkway,0,3.35953592,5.111571796
33,pea,bathtub,53,0.982016575,5,5,0,5,0.125,,,,,pod,0,3.384915496,4.041063281
33,find,clown,72,0.898736349,6,5,0,39,0.975,,,,,tree,0,2.514686534,3.266733957
33,bias,sirloin,53,0.681711334,7,5,1,4,0.1,skip,0,2.67216668,3.730715286,knee,0,3.478418268,4.014575239
33,process,joker,45,2.732529345,8,5,0,1,0.025,,,,,fee,0,5.742783263,6.214812776
33,date,laugh,59,0.848398795,9,5,1,24,0.6,laugh,1,2.16512646,4.957059801,laugh,1,3.749696102,4.853654891
33,rock,milk,63,1.382119722,10,5,0,35,0.875,,,,,between,0,2.563558792,3.883534082
33,port,cinema,56,0.731450403,11,5,0,13,0.325,,,,,city,0,2.452211191,3.132237504
33,bleach,ruin,52,0.548230187,12,5,0,3,0.075,,,,,car,0,4.415750482,4.887688264
33,caring,skirt,55,1.082075237,13,5,0,9,0.225,,,,,home,0,2.118325549,2.806367714
33,biology,temper,60,5.049897831,14,5,0,31,0.775,,,,,search,0,9.646705296,11.30808462
33,grip,beach,57,2.248941024,15,5,1,16,0.4,skip,0,5.234668785,10.07812318,fee,0,4.536035412,5.151997131
33,mill,feast,56,1.031975024,16,5,1,12,0.3, temper,0,9.893237084,27.19672045,rock,0,2.672707743,3.696623155
33,banner,glide,57,0.898418504,17,5,0,19,0.475,,,,,place,0,3.461265589,4.341306207
33,link,crisis,58,0.865076522,18,5,1,22,0.55,skip,0,4.245250365,5.029307178,bottle,0,3.663639233,4.623727076
33,calf,annoy,57,1.865239454,19,5,1,18,0.45,hurt,0,20.16329316,20.80330007,pain,0,1.80697102,2.406942731
33,knock,otter,64,1.382090215,20,5,0,37,0.925,,,,,caring,0,6.425440259,7.377465744
33,shrink,mafia,54,1.665258761,21,5,1,6,0.15,skip,0,2.127106285,2.934875433,down,0,2.527396368,3.015375156
33,pork,emperor,56,8.217401233,22,5,0,15,0.375,,,,,game,0,2.095949673,3.094605465
33,climax,saucer,56,1.282102755,23,5,0,11,0.275,,,,,hard,0,13.37224351,22.3677192
33,copy,bedroom,56,0.848474488,24,5,1,14,0.35,skip,0,10.90048145,11.6444731,yard,0,4.760822459,7.888823672
33,anger,decay,60,3.215644265,25,5,0,29,0.725,,,,,tree,0,3.300391106,4.1804561
33,bullet,walkway,59,1.981978408,26,5,0,27,0.675,,,,,walkway,1,1.269978851,3.158004851
33,want,ascent,59,1.582015741,27,5,0,25,0.625,,,,,yellow,0,3.373155363,4.327926995
33,smother,surgery,69,1.68214753,28,5,1,38,0.95,skip,0,1.991475593,5.607406464,bird,0,1.723180477,3.043215424
33,chicken,beet,58,3.932559429,29,5,0,23,0.575,,,,,yarn,0,4.402029045,5.090041381
33,prison,loaf,60,1.0154737,30,5,1,30,0.75,skip\,0,7.167952106,8.133493336,break,0,3.375744671,4.255787213
33,replace,roach,73,2.332191742,31,5,1,40,1,skip,0,6.515755783,7.492805507,reduce,0,2.363930975,4.259727784
33,forest,knob,59,0.881786963,32,5,1,28,0.7,skip,0,7.369548965,8.241543669,log,0,6.225878193,6.770067695
33,risk,zero,57,0.848393343,33,5,0,17,0.425,,,,,free,0,1.293339389,1.905237695
33,nerve,bumper,57,4.633163463,34,5,1,20,0.5,skip,0,9.882201348,12.41820043,endings,0,1.43991639,2.471952857
33,plant,worm,61,0.981821249,35,5,1,32,0.8,skip,0,7.5431514,8.38317525,away,0,4.125774018,5.517815321
33,fan,feature,50,1.598765953,36,5,1,2,0.05,skip,0,2.862813439,3.726826094,gaming,0,3.713567997,5.625586708
33,need,faucet,54,1.715568733,37,5,0,7,0.175,,,,,ready,0,2.592023534,3.856058813
33,collect,loyalty,54,0.948671706,38,5,1,8,0.2,loin,0,4.390189973,5.590971852,computer,0,1.862216637,3.806219534
33,capital,figure,59,1.431836981,39,5,1,26,0.65,gain,0,5.144250035,5.912280527,gain,0,1.149983226,1.67800471
33,bacon,feud,61,0.681678941,40,5,0,33,0.825,,,,,feud,1,6.214063856,7.078089769
35,smother,surgery,100,1.165264374,1,5,1,36,0.9,skip,0,4.01223014,4.684258265,skip,0,3.357209134,4.011123295
35,fan,feature,1,19.05368567,2,5,0,1,0.025,,,,,skip,0,3.343973821,4.054730616
35,climax,saucer,37,0.881746551,3,5,1,6,0.15,skip,0,1.721772004,4.281746102,skip,0,4.276608301,5.020689759
35,chicken,beet,60,0.831599511,4,5,0,13,0.325,,,,,beet,1,1.212952364,1.720793772
35,fee,chowder,27,1.148589214,5,5,0,5,0.125,,,,,skip,0,2.851807531,3.764250028
35,forest,knob,100,2.36546156,6,5,0,35,0.875,,,,,knob,1,2.36690357,3.102909325
35,replace,roach,81,1.615595065,7,5,1,18,0.45,skip,0,2.871986686,3.918386296,skip,0,3.72001696,4.27204878
35,process,joker,100,0.68180595,8,5,1,40,1,skip,0,4.673651347,5.265683539,skip,0,1.652970569,2.301193026
35,shrink,mafia,64,1.965405881,9,5,1,14,0.35,mafia,1,4.346401759,5.058637448,mafia,1,1.471028468,2.127022574
35,capital,figure,50,0.315091933,10,5,1,10,0.25,figure,1,1.340046782,2.644074434,skip,0,1.921764563,2.529792605
35,rock,milk,100,1.065144132,11,5,1,28,0.7,milk,1,4.17590561,5.543914742,milk,1,1.286431671,2.453521971
35,risk,zero,100,2.849140006,12,5,1,32,0.8,skip,0,3.02767754,3.73170346,one,0,2.138582706,2.442616131
35,pea,bathtub,100,1.181945308,13,5,1,26,0.65,bathtub,1,2.301939368,9.077855049,bathtub,1,2.791657192,4.039877211
35,visit,glove,81,14.15244377,14,5,0,19,0.475,,,,,skip,0,1.650177317,2.266212104
35,mill,feast,50,0.815367281,15,5,0,9,0.225,,,,,skip,0,1.128414229,1.760462828
35,calf,annoy,100,3.115716782,16,5,0,37,0.925,,,,,beet,0,1.233092068,1.697138207
35,knock,otter,20,0.881788567,17,5,1,4,0.1,skip,0,4.103234226,4.671230144,skip,0,5.472624749,6.136668259
35,bleach,ruin,66,3.115975934,18,5,1,16,0.4,ruin,1,2.94507887,3.745074764,skip,0,6.125607185,7.021628862
35,need,faucet,82,5.266305116,19,5,1,20,0.5,otter,0,1.775401869,2.535439728,skip,0,2.881129142,3.825179746
35,want,ascent,43,0.765057951,20,5,0,7,0.175,,,,,skip,0,2.793586072,3.545646693
35,bias,sirloin,76,1.748740407,21,5,0,17,0.425,,,,,skip,0,5.393083934,6.081172697
35,find,clown,100,1.465386477,22,5,1,34,0.85, skip,0,14.14955205,24.03007373,skip,0,4.416606717,4.976644961
35,anger,decay,100,3.049266631,23,5,1,30,0.75,decay,1,2.199176938,3.239120541,smother,0,1.736322638,2.712320362
35,pork,emperor,100,1.882025267,24,5,1,38,0.95,beet,0,1.734610893,3.094614562,beet,0,4.3597365,4.847771123
35,nerve,bumper,50,0.815251497,25,5,1,8,0.2,skip,0,5.568963565,6.208928785,end,0,1.895178793,3.671115322
35,grip,beach,100,5.166532868,26,5,0,27,0.675,,,,,skip,0,1.636767525,2.228778548
35,date,laugh,98,1.348498703,27,5,1,22,0.55,laugh,1,1.036577524,2.270258776,fulfill,0,1.900496525,6.052385747
35,biology,temper,100,1.115290851,28,5,0,25,0.625,,,,,skip,0,1.545164633,2.129194248
35,copy,bedroom,100,1.581961858,29,5,0,23,0.575,,,,,skip,0,1.683809561,2.507848465
35,prison,loaf,100,0.648489626,30,5,1,24,0.6,loaf,1,1.720046147,2.360173336,loaf,1,1.416307474,1.904298478
35,bullet,walkway,1,0.64868431,31,5,1,2,0.05,skip,0,4.091794048,4.66791891,skip,0,2.627749833,3.251740049
35,link,crisis,85,16.08608214,32,5,0,21,0.525,,,,,skip,0,8.17498062,8.791005465
35,collect,loyalty,100,2.199012403,33,5,0,39,0.975,,,,,skip,0,1.58417202,2.3042589
35,glue,force,100,1.448646849,34,5,0,33,0.825,,,,,skip,0,2.507819919,3.20384615
35,remind,foam,18,1.215120189,35,5,0,3,0.075,,,,,skip,0,2.241587609,2.913804965
35,port,cinema,65,10.51798294,36,5,0,15,0.375,,,,,skip,0,8.122967243,8.861686067
35,banner,glide,100,1.215936772,37,5,0,31,0.775,,,,,skip,0,3.58244071,6.840053678
35,bacon,feud,50,0.514643806,38,5,0,11,0.275,,,,,pig,0,6.731667218,8.571678238
35,plant,worm,100,1.082009487,39,5,0,29,0.725,,,,,forest,0,2.13741845,2.745246035
35,caring,skirt,55,1.365260782,40,5,1,12,0.3,skip,0,2.324040026,2.984974683,skip,0,3.081836612,3.661315365
36,bleach,ruin,51,1.165124535,1,5,1,27,0.675,ruin,1,1.336225264,2.120247117,ruin,1,1.989185249,2.525171824
36,link,crisis,35,28.12307597,2,5,1,1,0.025,crisis,1,5.209568965,6.649655486,crisis,1,0.968981398,1.584981868
36,banner,glide,46,1.281993386,3,5,1,11,0.275,slide,0,1.48751151,3.599671058,slide,0,1.066396269,1.394410802
36,remind,foam,42,1.415359712,4,5,1,5,0.125,foam,1,2.215129811,2.679154141,foam,1,4.068375824,4.451821451
36,nerve,bumper,44,2.482422782,5,5,0,8,0.2,,,,,annoy,0,7.841482217,9.761446834
36,biology,temper,52,1.715350956,6,5,0,36,0.9,,,,,temper,1,1.193778062,1.625796577
36,port,cinema,50,0.766303994,7,5,1,23,0.575,cinema,1,1.558929795,2.250813456,cinema,1,1.105803608,1.793829828
36,glue,force,50,2.348860809,8,5,0,24,0.6,,,,,force,1,0.844062503,1.323196502
36,bullet,walkway,47,1.281926353,9,5,0,14,0.35,,,,,walkway,1,4.29542178,5.130578526
36,calf,annoy,55,0.96545784,10,5,0,40,1,,,,,annoy,1,0.865733701,1.457736706
36,copy,bedroom,52,1.515534158,11,5,1,35,0.875,bedroom,1,2.123375534,3.06741844,bedroom,1,8.792298334,10.72029856
36,mill,feast,51,1.115173142,12,5,1,31,0.775,feast,1,1.947249902,3.859204245,feast,1,0.881552508,1.60954831
36,grip,beach,45,1.84894019,13,5,0,10,0.25,,,,,hand,0,11.90602915,12.41801184
36,chicken,beet,43,1.782274187,14,5,1,7,0.175,beet,1,1.869391646,2.309412737,beet,1,1.151034472,1.886977043
36,fan,feature,50,1.215272858,15,5,0,26,0.65,,,,,feature,1,2.652526035,3.532520749
36,bias,sirloin,47,0.98179976,16,5,0,12,0.3,,,,,sirloin,1,1.872489272,3.168492539
36,rock,milk,52,1.848679115,17,5,0,34,0.85,,,,,milk,1,2.448846024,2.992840628
36,want,ascent,41,1.148744448,18,5,0,2,0.05,,,,,foam,0,7.984354709,9.136642921
36,climax,saucer,41,2.048964502,19,5,0,4,0.1,,,,,crisis,0,8.594941548,9.330974245
36,fee,chowder,48,2.032320773,20,5,1,17,0.425,loyalty,0,3.306432178,6.394393482,loyalty,0,12.13556847,12.8875085
36,process,joker,48,1.281885299,21,5,1,15,0.375,joker,1,1.679063053,2.111088945,joker,1,2.003124568,2.531134547
36,forest,knob,49,1.165461945,22,5,1,21,0.525,knob,1,1.483549833,2.488483006,knob,1,0.862409638,1.430447892
36,prison,loaf,50,5.28304731,23,5,1,25,0.625,loaf,1,1.222520111,2.142540535,loaf,1,0.790924961,1.145599032
36,collect,loyalty,48,2.249055846,24,5,0,16,0.4,,,,,loyalty,1,1.606717853,2.558723244
36,replace,roach,53,1.148548801,25,5,1,37,0.925,link,0,3.245780534,4.093797017,faucet,0,1.503773889,2.42378854
36,capital,figure,51,1.515306438,26,5,0,32,0.8,,,,,crisis,0,4.285260038,9.243321485
36,date,laugh,54,1.28176278,27,5,1,39,0.975,laugh,1,1.395842548,2.347817148,laugh,1,0.794452368,1.305277864
36,pork,emperor,49,4.049368624,28,5,0,20,0.5,,,,,emperor,1,1.957358082,2.605396118
36,plant,worm,51,1.365446486,29,5,1,29,0.725,worm,1,1.308424242,2.172446198,worm,1,0.987494672,1.93156035
36,shrink,mafia,41,1.332061205,30,5,1,3,0.075,mafia,1,1.939201461,2.427240575,mafia,1,0.908202103,1.319833951
36,anger,decay,52,1.548741433,31,5,1,33,0.825,decay,1,1.413920268,2.045894137,decay,1,0.976918545,1.592951729
36,risk,zero,47,2.182052753,32,5,1,13,0.325,zero,1,2.543274882,3.367281071,zero,1,2.018798084,2.402492919
36,bacon,feud,48,3.04876661,33,5,1,19,0.475,feud,1,1.208532361,2.864059802,feud,1,1.527373006,1.863415452
36,caring,skirt,51,2.298767653,34,5,0,30,0.75,,,,,skirt,1,1.500651887,1.91670919
36,visit,glove,53,1.481946816,35,5,0,38,0.95,,,,,now,0,4.93571607,17.27941021
36,need,faucet,50,1.615304803,36,5,0,22,0.55,,,,,l,0,17.00576259,17.71778435
36,find,clown,48,1.015517319,37,5,0,18,0.45,,,,,d,0,14.81905281,14.92303177
36,knock,otter,43,0.615093441,38,5,0,6,0.15,,,,,otter,1,4.256200465,4.848230411
36,pea,bathtub,51,0.931942983,39,5,0,28,0.7,,,,,bathtub,1,4.308237576,5.676243501
36,smother,surgery,44,1.048815682,40,5,1,9,0.225,surgery,1,1.552795161,3.520798968,surgery,1,0.947204358,1.923141144
37,rock,milk,99,1.665664154,1,5,1,26,0.65,milk,1,1.066248278,1.962282124,skip ,0,6.009461382,10.35204751
37,replace,roach,14,2.015758707,2,5,0,9,0.225,,,,,skip,0,2.747672742,4.355687221
37,fan,feature,45,2.198738097,3,5,0,15,0.375,,,,,feature,1,0.764114616,2.420058233
37,grip,beach,37,4.566378496,4,5,1,14,0.35,skip,0,2.191312425,3.891608015,skip,0,1.801585846,2.857556148
37,plant,worm,100,1.265471328,5,5,1,30,0.75,worm,1,2.210197663,3.034235969,worm,1,1.79136015,3.975530433
37,prison,loaf,100,1.015400124,6,5,1,28,0.7,loaf,1,0.956744943,1.668721086,loaf,1,1.349471043,4.959964488
37,link,crisis,100,1.682084859,7,5,0,39,0.975,,,,,skip,0,1.312154728,2.016189134
37,pork,emperor,3,2.282529655,8,5,0,3,0.075,,,,,skip,0,6.201354018,8.451980094
37,date,laugh,100,1.899068968,9,5,0,35,0.875,,,,,skip,0,1.489425024,2.337456925
37,calf,annoy,14,4.34979242,10,5,1,10,0.25,skip,0,1.963744038,11.63569172,skip,0,0.703133139,2.215304096
37,bullet,walkway,46,3.61624167,11,5,1,16,0.4,skip,0,7.967993786,9.057130404,skip,0,1.253377347,13.56535952
37,capital,figure,100,1.081871634,12,5,0,37,0.925,,,,,figure,1,6.920496999,8.465969943
37,process,joker,48,1.331844371,13,5,1,18,0.45,skip,0,1.401604384,3.22054203,skip,0,1.528794046,2.336829887
37,anger,decay,50,2.982712346,14,5,1,20,0.5,feature,0,0.899837772,6.491792053,skip,0,1.07430163,1.938061127
37,biology,temper,100,1.615509752,15,5,1,36,0.9,temper,1,1.970145601,4.298134729,temper,1,3.935796412,5.367764523
37,fee,chowder,6,1.048810199,16,5,1,6,0.15,skip,0,1.56017643,3.559784491,skip,0,1.328256943,2.424295151
37,find,clown,99,1.749016304,17,5,0,27,0.675,,,,,skip,0,1.318393999,1.974415555
37,caring,skirt,46,4.133028335,18,5,0,17,0.425,,,,,skip\,0,0.806814158,1.892787681
37,forest,knob,100,0.915179522,19,5,1,40,1,knob,1,12.99113487,18.20498635,skip,0,3.143666817,5.263742883
37,bacon,feud,10,4.032640951,20,5,1,8,0.2,skip,0,1.730511137,4.50656578,skip,0,1.096210123,2.192215296
37,mill,feast,91,16.95329511,21,5,0,25,0.625,,,,,skip,0,1.952068617,2.688103144
37,banner,glide,78,2.08239315,22,5,0,23,0.575,,,,,skip,0,0.804113884,1.568705434
37,want,ascent,15,1.181914869,23,5,0,11,0.275,,,,,skip,0,1.103391074,1.919283014
37,collect,loyalty,78,1.848836628,24,5,1,22,0.55,joker,0,6.574206051,14.28583355,skip,0,1.617320305,2.281357687
37,remind,foam,29,18.4203857,25,5,1,12,0.3,skip,0,1.076896382,2.052936143,skip,0,0.853144108,2.189090689
37,nerve,bumper,56,3.366147053,26,5,0,21,0.525,,,,,skip,0,2.765989636,5.245922808
37,knock,otter,2,2.332246574,27,5,1,2,0.05,glove,0,8.085028956,10.2370256,skip,0,1.057540624,7.201492897
37,need,faucet,85,1.315385819,28,5,1,24,0.6,faucet,1,1.648575356,4.056525496,faucet,1,0.860210557,2.312728524
37,climax,saucer,9,3.932652882,29,5,0,7,0.175,,,,,skip,0,2.78734454,4.0833653
37,risk,zero,100,2.549228759,30,5,1,32,0.8,zero,1,1.237812685,2.021807782,zero,1,1.149790303,1.925810948
37,bleach,ruin,4,1.548663944,31,5,1,4,0.1,skip,0,4.028647791,5.27685969,skip,0,0.852540162,1.572600769
37,copy,bedroom,100,2.399075704,32,5,1,34,0.85,bedroom,1,2.378994121,5.003049555,cat,0,0.750151067,4.950127845
37,bias,sirloin,36,2.332239839,33,5,0,13,0.325,,,,,skip,0,1.478612061,2.310292537
37,smother,surgery,6,2.482211357,34,5,0,5,0.125,,,,,mothuer,0,0.734015816,6.990023516
37,port,cinema,100,1.365335592,35,5,1,38,0.95,cinema,1,1.378373819,2.210483439,cinema,1,2.34706777,5.75506153
37,visit,glove,50,2.398914053,36,5,0,19,0.475,,,,,skip,0,0.926063367,2.838080435
37,shrink,mafia,1,1.21523193,37,5,0,1,0.025,,,,,skip,0,0.891050576,2.666940682
37,glue,force,100,1.38224991,38,5,0,31,0.775,,,,,totally,0,3.783156052,8.069727939
37,pea,bathtub,100,1.765663448,39,5,0,33,0.825,,,,,skip,0,1.453018315,2.053037495
37,chicken,beet,100,1.582045472,40,5,0,29,0.725,,,,,beet,1,2.175069407,5.063070108
38,capital,figure,64,2.248802789,1,5,0,30,0.75,,,,,skip,0,5.461037997,8.48236954
38,anger,decay,42,0.78183318,2,5,0,10,0.25,,,,,skip,0,7.296058432,8.280053922
38,grip,beach,44,1.048514836,3,5,0,12,0.3,,,,,chowder,0,4.523217606,6.475294841
38,shrink,mafia,46,1.331886727,4,5,1,17,0.425,skip,0,4.476374423,5.263920156,skip,0,4.313400394,5.973945041
38,fan,feature,63,6.233348333,5,5,1,29,0.725,facet,0,5.673286034,7.352961364,chowder,0,3.33402312,4.685936974
38,prison,loaf,52,0.831505537,6,5,1,23,0.575,loaf,1,2.414730436,3.75077577,loaf,1,4.28677325,5.048678088
38,pork,emperor,46,0.815076377,7,5,0,16,0.4,,,,,skip,0,5.148952282,6.404953572
38,link,crisis,55,2.715608183,8,5,0,24,0.6,,,,,skip,0,1.711848886,2.343843604
38,risk,zero,77,1.782118632,9,5,1,37,0.925,zero,1,6.118634158,7.732586435,skip,0,3.59533252,4.471724455
38,climax,saucer,67,1.381923755,10,5,0,32,0.8,,,,,skip,0,9.93243691,10.89244584
38,chicken,beet,58,1.648592902,11,5,0,26,0.65,,,,,skip,0,1.492410366,14.02812207
38,bias,sirloin,94,1.581969235,12,5,0,40,1,,,,,sirloin,1,1.635352778,3.435346427
38,nerve,bumper,37,1.082144194,13,5,1,3,0.075,skip,0,7.247758807,8.399769265,skip,0,4.542592686,6.574649817
38,biology,temper,45,2.232091385,14,5,1,13,0.325,temper,1,2.026676857,4.898437748,tenst,0,7.002112339,7.858115682
38,collect,loyalty,64,1.0316312,15,5,1,31,0.775,loyalty,1,6.785311195,16.50503436,skip,0,4.044514671,6.012480311
38,glue,force,62,1.28186798,16,5,0,28,0.7,,,,,skip,0,1.748582606,2.748590304
38,bacon,feud,56,1.848815426,17,5,1,25,0.625,argument,0,7.097616611,21.79321499,argue,0,4.662425418,15.64612872
38,process,joker,46,0.881826413,18,5,0,14,0.35,,,,,skip,0,5.151078091,5.983098082
38,bullet,walkway,42,1.78219689,19,5,0,8,0.2,,,,,skip,0,1.398509432,2.334470862
38,port,cinema,29,1.365221332,20,5,1,1,0.025,cinema,1,2.193018249,3.361767693,cinema,1,3.968904422,5.688876801
38,visit,glove,42,1.631971303,21,5,1,9,0.225, skip,0,6.327442989,20.81504559,skip,0,4.497784867,5.449799879
38,rock,milk,35,9.067434798,22,5,0,2,0.05,,,,,skip,0,1.416692673,5.256629604
38,fee,chowder,46,1.315459171,23,5,1,15,0.375,chowder,1,1.514507816,3.375557873,skip,0,3.957607611,5.141607847
38,calf,annoy,67,1.448898303,24,5,1,33,0.825,annoy,1,2.035526486,3.035544768,annoy,1,0.96586998,1.917919952
38,copy,bedroom,38,1.415283698,25,5,0,4,0.1,,,,,skip,0,2.182883128,3.142887887
38,bleach,ruin,72,1.148597873,26,5,0,36,0.9,,,,,ruin,1,1.65673243,2.784735802
38,want,ascent,47,0.915033047,27,5,0,18,0.45,,,,,skip,0,2.573908285,3.21088172
38,pea,bathtub,39,0.915199827,28,5,1,5,0.125,bathroom,0,3.367062011,10.37508062,bathroom,0,2.293114115,3.733114038
38,knock,otter,51,5.483295492,29,5,1,21,0.525,skip,0,9.570947932,16.08280234,skip,0,1.571291436,2.26518448
38,caring,skirt,71,0.948398122,30,5,0,34,0.85,,,,,skip,0,1.318305344,2.030310106
38,forest,knob,58,1.548572407,31,5,1,27,0.675,skip,0,8.76407106,10.1400337,skip,0,9.038863378,13.63578416
38,date,laugh,91,0.931622251,32,5,1,39,0.975,laugh,1,1.35951327,2.38352613,laugh,1,1.922102614,2.770083496
38,replace,roach,43,0.931841632,33,5,1,11,0.275,skip,0,5.934911354,8.638991158,skip,0,1.136818682,2.760791258
38,find,clown,71,1.982090343,34,5,1,35,0.875,skip,0,3.329970676,9.959501211,skip,0,1.413048198,2.806066704
38,smother,surgery,41,1.065256709,35,5,1,7,0.175,search,0,2.838575746,8.070477579,skip,0,8.545321792,10.76132367
38,mill,feast,51,1.298543141,36,5,0,22,0.55,,,,,skip,0,5.593972297,6.513977005
38,remind,foam,41,2.315469113,37,5,0,6,0.15,,,,,skip,0,2.036853674,4.748804874
38,plant,worm,84,0.931785504,38,5,0,38,0.95,,,,,skip,0,26.37351962,27.32552277
38,banner,glide,49,1.832038914,39,5,0,20,0.5,,,,,skip,0,2.573056743,3.461120104
38,need,faucet,47,2.765530068,40,5,1,19,0.475,skip,0,6.151331149,7.559347709,skip,0,0.999658742,4.623636449
39,link,crisis,75,1.765381731,1,5,1,36,0.9,crisis ,0,1.611694317,3.067657487, ,0,8.089841883,8.984215263
39,mill,feast,58,1.715641239,2,5,1,20,0.5,feast,1,1.837874003,2.469910085,feast ,0,1.927130862,2.879827328
39,want,ascent,40,6.650234362,3,5,1,6,0.15,house,0,2.757398915,3.517497471, money,0,3.11577024,7.894409302
39,biology,temper,74,2.582336323,4,5,0,35,0.875,,,,,class,0,3.67905384,5.431073358
39,replace,roach,45,1.315090791,5,5,0,13,0.325,,,,,dog,0,1.725864722,4.429748395
39,pork,emperor,67,2.582280836,6,5,0,31,0.775,,,,,emperor,1,1.484892338,2.485017746
39,anger,decay,61,1.148720164,7,5,1,24,0.6,decay,1,2.892756546,5.036768616,crisis,0,9.914265471,11.57831813
39,calf,annoy,45,0.765147273,8,5,1,14,0.35,annoy,1,3.357004024,4.085017041,annoy,1,1.019254788,1.699302911
39,rock,milk,58,0.665090567,9,5,0,21,0.525,,,,,foil,0,4.77587335,6.071909173
39,remind,foam,69,3.232522896,10,5,0,33,0.825,,,,,keyboard,0,5.021304295,6.269308511
39,risk,zero,63,1.265240286,11,5,1,26,0.65,date,0,4.061253016,13.08522873,factor ,0,1.234659002,2.322690327
39,port,cinema,66,1.165181656,12,5,0,29,0.725,,,,,place,0,6.478344498,8.726411257
39,chicken,beet,65,2.782382702,13,5,1,28,0.7,beet,1,1.061416271,1.669842281,beet,1,1.045870483,3.109913587
39,date,laugh,76,1.348639531,14,5,1,38,0.95,laugh,1,1.026373218,1.602422781,laugh,1,1.190579834,1.862618199
39,knock,otter,38,3.265889137,15,5,1,4,0.1,otter,1,5.149840818,5.909859832,tree,0,4.186512251,6.946535434
39,process,joker,44,5.433221011,16,5,1,10,0.25,deed,0,5.779278291,8.523284524,mouse,0,1.44256343,7.962527046
39,caring,skirt,44,1.165149582,17,5,0,11,0.275,,,,,deep,0,5.019349405,5.755359992
39,grip,beach,43,2.098816738,18,5,0,9,0.225,,,,,force ,0,4.389371812,5.621518804
