"subn","word1","word2","trial","list","jol","jolrt","jolrank","jolrankp","practice","honor","choice","choicert","restudyresp","restudyacc","restudyrtfirst","restudyrt"
"1762","fee","chowder",1,1,1,2.717,34,0.85,0,1,0,1.095,"",NA,NA,NA
"1762","pea","bathtub",2,1,100,2.191,18,0.45,0,0,1,1.509,"",NA,NA,NA
"1762","risk","zero",3,1,1,2.913,9,0.225,1,0,0,1.157,"antler",0,NA,9.128
"1762","climax","saucer",4,1,100,2.583,11,0.275,0,0,1,1.417,"",NA,NA,NA
"1762","link","crisis",5,1,3,2.731,30,0.75,0,1,0,1.331,"",NA,NA,NA
"1762","nerve","bumper",6,1,1,2.959,25,0.625,1,1,1,1.385,"festive",0,NA,5.77
"1762","biology","temper",7,1,1,2.193,16,0.4,1,0,0,0.743,"planter",0,NA,7.237
"1762","calf","annoy",8,1,27,2.419,38,0.95,0,1,0,0.703,"",NA,NA,NA
"1762","banner","glide",9,1,1,1.963,15,0.375,1,0,0,0.837,"climb",0,NA,18.32
"1762","pork","emperor",10,1,100,2.491,35,0.875,0,0,1,1.197,"",NA,NA,NA
"1762","fan","feature",11,1,1,7.181,31,0.775,0,1,0,0.727,"",NA,NA,NA
"1762","copy","bedroom",12,1,1,2.849,19,0.475,1,0,0,0.571,"plumb",0,NA,4.837
"1762","collect","loyalty",13,1,1,3.679,13,0.325,1,1,1,0.525,"hard",0,NA,5.092
"1762","mill","feast",14,1,1,1.904,21,0.525,1,1,1,0.984,"flag",0,NA,4.614
"1762","forest","knob",15,1,1,2.371,24,0.6,1,0,0,0.979,"run",0,NA,3.947
"1762","plant","worm",16,1,23,10.558,3,0.075,0,1,0,2.786,"",NA,NA,NA
"1762","visit","glove",17,1,1,2.231,1,0.025,1,1,1,0.735,"pants",0,NA,5.887
"1762","knock","otter",18,1,1,2.107,22,0.55,1,0,0,1.128,"love",0,NA,4.315
"1762","anger","decay",19,1,100,2.765,28,0.7,0,0,1,0.679,"",NA,NA,NA
"1762","prison","loaf",20,1,1,2.231,14,0.35,1,0,0,0.971,"people",0,NA,4.449
"1762","process","joker",21,1,1,3.821,6,0.15,1,0,0,4.55,"worm",0,NA,4.276
"1762","glue","force",22,1,1,1.683,27,0.675,1,1,1,0.719,"blanket",0,NA,4.858
"1762","bias","sirloin",23,1,72,3.375,39,0.975,0,0,1,0.688,"",NA,NA,NA
"1762","shrink","mafia",24,1,1,2.199,29,0.725,0,1,0,2.177,"",NA,NA,NA
"1762","replace","roach",25,1,1,3.906,7,0.175,1,0,0,1.159,"crab",0,NA,5.143
"1762","chicken","beet",26,1,100,2.631,17,0.425,0,0,1,0.813,"",NA,NA,NA
"1762","smother","surgery",27,1,77,4.83,4,0.1,0,0,1,7.871,"",NA,NA,NA
"1762","bleach","ruin",28,1,1,3.021,12,0.3,1,1,1,2.397,"sand",0,NA,4.086
"1762","date","laugh",29,1,100,2.151,23,0.575,0,0,1,1.167,"",NA,NA,NA
"1762","rock","milk",30,1,1,1.909,36,0.9,0,1,0,0.673,"",NA,NA,NA
"1762","grip","beach",31,1,1,2.594,37,0.925,0,0,1,0.694,"",NA,NA,NA
"1762","find","clown",32,1,1,1.754,8,0.2,1,1,1,0.617,"sprinkle",0,NA,5.525
"1762","bullet","walkway",33,1,1,2.255,40,1,0,1,0,0.875,"",NA,NA,NA
"1762","need","faucet",34,1,1,2.395,32,0.8,0,1,0,1.049,"",NA,NA,NA
"1762","bacon","feud",35,1,1,2.191,26,0.65,0,1,0,1.157,"",NA,NA,NA
"1762","want","ascent",36,1,1,2.325,20,0.5,1,0,0,0.727,"sheep",0,NA,8.526
"1762","port","cinema",37,1,1,4.573,5,0.125,1,1,1,1.839,"watch",0,NA,10.12
"1762","caring","skirt",38,1,1,2.271,2,0.05,1,1,1,0.673,"team",0,NA,4.331
"1762","capital","figure",39,1,1,2.137,10,0.25,1,1,1,0.987,"fight",0,NA,9.863
"1762","remind","foam",40,1,1,2.435,33,0.825,0,0,1,0.853,"",NA,NA,NA
"1762","banner","glide",1,2,1,1.963,15,0.375,1,0,0,0.837,"dont know",0,NA,6.046
"1762","anger","decay",2,2,100,2.765,28,0.7,0,0,1,0.679,"",NA,NA,NA
"1762","capital","figure",3,2,1,2.137,10,0.25,1,1,1,0.987,"dont know",0,NA,9.584
"1762","caring","skirt",4,2,1,2.271,2,0.05,1,1,1,0.673,"dont know",0,NA,5.889
"1762","biology","temper",5,2,1,2.193,16,0.4,1,0,0,0.743,"microscope",0,NA,3.808
"1762","climax","saucer",6,2,100,2.583,11,0.275,0,0,1,1.417,"",NA,NA,NA
"1762","forest","knob",7,2,1,2.371,24,0.6,1,0,0,0.979,"run",0,NA,3.502
"1762","port","cinema",8,2,1,4.573,5,0.125,1,1,1,1.839,"watch",0,NA,5.535
"1762","prison","loaf",9,2,1,2.231,14,0.35,1,0,0,0.971,"soap",0,NA,2.549
"1762","fee","chowder",10,2,1,2.717,34,0.85,0,1,0,1.095,"",NA,NA,NA
"1762","replace","roach",11,2,1,3.906,7,0.175,1,0,0,1.159,"blanket",0,NA,2.595
"1762","process","joker",12,2,1,3.821,6,0.15,1,0,0,4.55,"think",0,NA,2.644
"1762","find","clown",13,2,1,1.754,8,0.2,1,1,1,0.617,"look",0,NA,2.507
"1762","chicken","beet",14,2,100,2.631,17,0.425,0,0,1,0.813,"",NA,NA,NA
"1762","fan","feature",15,2,1,7.181,31,0.775,0,1,0,0.727,"",NA,NA,NA
"1762","bullet","walkway",16,2,1,2.255,40,1,0,1,0,0.875,"",NA,NA,NA
"1762","shrink","mafia",17,2,1,2.199,29,0.725,0,1,0,2.177,"",NA,NA,NA
"1762","plant","worm",18,2,23,10.558,3,0.075,0,1,0,2.786,"",NA,NA,NA
"1762","mill","feast",19,2,1,1.904,21,0.525,1,1,1,0.984,"mall",0,NA,6.854
"1762","pork","emperor",20,2,100,2.491,35,0.875,0,0,1,1.197,"",NA,NA,NA
"1762","calf","annoy",21,2,27,2.419,38,0.95,0,1,0,0.703,"",NA,NA,NA
"1762","visit","glove",22,2,1,2.231,1,0.025,1,1,1,0.735,"speak",0,NA,2.575
"1762","nerve","bumper",23,2,1,2.959,25,0.625,1,1,1,1.385,"function",0,NA,4.127
"1762","link","crisis",24,2,3,2.731,30,0.75,0,1,0,1.331,"",NA,NA,NA
"1762","remind","foam",25,2,1,2.435,33,0.825,0,0,1,0.853,"",NA,NA,NA
"1762","risk","zero",26,2,1,2.913,9,0.225,1,0,0,1.157,"don't know",0,NA,6.56
"1762","bias","sirloin",27,2,72,3.375,39,0.975,0,0,1,0.688,"",NA,NA,NA
"1762","glue","force",28,2,1,1.683,27,0.675,1,1,1,0.719,"orange",0,NA,6.686
"1762","collect","loyalty",29,2,1,3.679,13,0.325,1,1,1,0.525,"rock",0,NA,1.969
"1762","bleach","ruin",30,2,1,3.021,12,0.3,1,1,1,2.397,"car",0,NA,5.496
"1762","bacon","feud",31,2,1,2.191,26,0.65,0,1,0,1.157,"",NA,NA,NA
"1762","grip","beach",32,2,1,2.594,37,0.925,0,0,1,0.694,"",NA,NA,NA
"1762","date","laugh",33,2,100,2.151,23,0.575,0,0,1,1.167,"",NA,NA,NA
"1762","smother","surgery",34,2,77,4.83,4,0.1,0,0,1,7.871,"",NA,NA,NA
"1762","need","faucet",35,2,1,2.395,32,0.8,0,1,0,1.049,"",NA,NA,NA
"1762","want","ascent",36,2,1,2.325,20,0.5,1,0,0,0.727,"grapes",0,NA,6.31
"1762","rock","milk",37,2,1,1.909,36,0.9,0,1,0,0.673,"",NA,NA,NA
"1762","copy","bedroom",38,2,1,2.849,19,0.475,1,0,0,0.571,"dont know",0,NA,3.057
"1762","knock","otter",39,2,1,2.107,22,0.55,1,0,0,1.128,"milk",0,NA,3.961
"1762","pea","bathtub",40,2,100,2.191,18,0.45,0,0,1,1.509,"",NA,NA,NA
"1762","collect","loyalty",1,3,1,3.679,13,0.325,1,1,1,0.525,"dont know",0,NA,4.863
"1762","remind","foam",2,3,1,2.435,33,0.825,0,0,1,0.853,"",NA,NA,NA
"1762","bias","sirloin",3,3,72,3.375,39,0.975,0,0,1,0.688,"",NA,NA,NA
"1762","mill","feast",4,3,1,1.904,21,0.525,1,1,1,0.984,"dont know",0,NA,2.626
"1762","nerve","bumper",5,3,1,2.959,25,0.625,1,1,1,1.385,"dont know",0,NA,4.726
"1762","knock","otter",6,3,1,2.107,22,0.55,1,0,0,1.128,"dont know",0,NA,2.807
"1762","anger","decay",7,3,100,2.765,28,0.7,0,0,1,0.679,"",NA,NA,NA
"1762","bacon","feud",8,3,1,2.191,26,0.65,0,1,0,1.157,"",NA,NA,NA
"1762","chicken","beet",9,3,100,2.631,17,0.425,0,0,1,0.813,"",NA,NA,NA
"1762","process","joker",10,3,1,3.821,6,0.15,1,0,0,4.55,"dont know",0,NA,11.48
"1762","pork","emperor",11,3,100,2.491,35,0.875,0,0,1,1.197,"",NA,NA,NA
"1762","fee","chowder",12,3,1,2.717,34,0.85,0,1,0,1.095,"",NA,NA,NA
"1762","plant","worm",13,3,23,10.558,3,0.075,0,1,0,2.786,"",NA,NA,NA
"1762","copy","bedroom",14,3,1,2.849,19,0.475,1,0,0,0.571,"paste",0,NA,6.848
"1762","date","laugh",15,3,100,2.151,23,0.575,0,0,1,1.167,"",NA,NA,NA
"1762","capital","figure",16,3,1,2.137,10,0.25,1,1,1,0.987,"fight",0,NA,1.827
"1762","want","ascent",17,3,1,2.325,20,0.5,1,0,0,0.727,"need",0,NA,2.654
"1762","bleach","ruin",18,3,1,3.021,12,0.3,1,1,1,2.397,"grip",0,NA,2.796
"1762","calf","annoy",19,3,27,2.419,38,0.95,0,1,0,0.703,"",NA,NA,NA
"1762","biology","temper",20,3,1,2.193,16,0.4,1,0,0,0.743,"microscope",0,NA,2.89
"1762","need","faucet",21,3,1,2.395,32,0.8,0,1,0,1.049,"",NA,NA,NA
"1762","fan","feature",22,3,1,7.181,31,0.775,0,1,0,0.727,"",NA,NA,NA
"1762","find","clown",23,3,1,1.754,8,0.2,1,1,1,0.617,"seek",0,NA,2.759
"1762","banner","glide",24,3,1,1.963,15,0.375,1,0,0,0.837,"flag",0,NA,2.412
"1762","link","crisis",25,3,3,2.731,30,0.75,0,1,0,1.331,"",NA,NA,NA
"1762","grip","beach",26,3,1,2.594,37,0.925,0,0,1,0.694,"",NA,NA,NA
"1762","port","cinema",27,3,1,4.573,5,0.125,1,1,1,1.839,"dont iknow",0,NA,3.72
"1762","pea","bathtub",28,3,100,2.191,18,0.45,0,0,1,1.509,"",NA,NA,NA
"1762","smother","surgery",29,3,77,4.83,4,0.1,0,0,1,7.871,"",NA,NA,NA
"1762","forest","knob",30,3,1,2.371,24,0.6,1,0,0,0.979,"run",0,NA,2.657
"1762","prison","loaf",31,3,1,2.231,14,0.35,1,0,0,0.971,"time",0,NA,2.145
"1762","risk","zero",32,3,1,2.913,9,0.225,1,0,0,1.157,"reward",0,NA,2.658
"1762","visit","glove",33,3,1,2.231,1,0.025,1,1,1,0.735,"leave",0,NA,4.779
"1762","caring","skirt",34,3,1,2.271,2,0.05,1,1,1,0.673,"hug",0,NA,2.722
"1762","rock","milk",35,3,1,1.909,36,0.9,0,1,0,0.673,"",NA,NA,NA
"1762","climax","saucer",36,3,100,2.583,11,0.275,0,0,1,1.417,"",NA,NA,NA
"1762","shrink","mafia",37,3,1,2.199,29,0.725,0,1,0,2.177,"",NA,NA,NA
"1762","replace","roach",38,3,1,3.906,7,0.175,1,0,0,1.159,"Don't know",0,NA,3.678
"1762","glue","force",39,3,1,1.683,27,0.675,1,1,1,0.719,"don't know",0,NA,2.927
"1762","bullet","walkway",40,3,1,2.255,40,1,0,1,0,0.875,"",NA,NA,NA
"1803","remind","foam",1,1,1,2.039,16,0.4,0,0,1,0.798,"",NA,NA,NA
"1803","pea","bathtub",2,1,1,2.231,23,0.575,0,0,1,0.679,"",NA,NA,NA
"1803","find","clown",3,1,1,3.567,26,0.65,0,1,0,1.839,"",NA,NA,NA
"1803","risk","zero",4,1,100,20.909,2,0.05,1,1,1,8.589,"zero",1,NA,12.06
"1803","fee","chowder",5,1,1,7.712,37,0.925,1,0,0,0.838,"chain",0,NA,12.671
"1803","rock","milk",6,1,1,7.663,15,0.375,0,1,0,1.064,"",NA,NA,NA
"1803","knock","otter",7,1,1,3.617,34,0.85,1,0,0,1.285,"door",0,NA,11.18
"1803","process","joker",8,1,1,6.591,36,0.9,1,0,0,0.734,"serve",0,NA,6.839
"1803","glue","force",9,1,1,6.543,4,0.1,0,1,0,2.023,"",NA,NA,NA
"1803","biology","temper",10,1,74,11.111,30,0.75,1,1,1,0.912,"temper",1,NA,7.926
"1803","capital","figure",11,1,1,8.247,29,0.725,1,0,0,1.263,"person",0,NA,12.711
"1803","climax","saucer",12,1,1,13.182,24,0.6,0,1,0,0.839,"",NA,NA,NA
"1803","bullet","walkway",13,1,1,4.6,28,0.7,1,1,1,0.727,"path",0,NA,26.62
"1803","smother","surgery",14,1,21,18.95,17,0.425,1,1,1,1.223,"inside",0,NA,13.159
"1803","need","faucet",15,1,1,4.047,21,0.525,0,1,0,1.276,"",NA,NA,NA
"1803","link","crisis",16,1,1,1.983,10,0.25,0,0,1,0.719,"",NA,NA,NA
"1803","calf","annoy",17,1,1,2.015,11,0.275,0,0,1,0.711,"",NA,NA,NA
"1803","nerve","bumper",18,1,1,5.015,5,0.125,0,1,0,0.83,"",NA,NA,NA
"1803","bacon","feud",19,1,1,2.91,39,0.975,0,0,1,2.863,"",NA,NA,NA
"1803","anger","decay",20,1,100,5.758,13,0.325,1,1,1,1.071,"decay",1,NA,15.772
"1803","plant","worm",21,1,1,2.799,20,0.5,0,0,1,0.695,"",NA,NA,NA
"1803","shrink","mafia",22,1,1,6.063,27,0.675,1,0,0,1.159,"manager",0,NA,20.317
"1803","chicken","beet",23,1,1,19.031,19,0.475,0,1,0,0.83,"",NA,NA,NA
"1803","collect","loyalty",24,1,1,15.527,35,0.875,1,0,0,0.599,"honest",0,NA,14.461
"1803","mill","feast",25,1,2,2.983,33,0.825,1,0,0,1.423,"skip",0,NA,26.583
"1803","copy","bedroom",26,1,25,10.375,14,0.35,1,0,0,1.303,"skip",0,NA,10.855
"1803","fan","feature",27,1,1,2.615,40,1,0,0,1,0.767,"",NA,NA,NA
"1803","bias","sirloin",28,1,25,5.255,18,0.45,1,1,1,5.207,"skip",0,NA,27.253
"1803","forest","knob",29,1,1,2.079,8,0.2,0,0,1,0.703,"",NA,NA,NA
"1803","visit","glove",30,1,1,6.543,22,0.55,0,1,0,1.072,"",NA,NA,NA
"1803","port","cinema",31,1,1,2.072,6,0.15,0,0,1,0.888,"",NA,NA,NA
"1803","replace","roach",32,1,1,3.127,32,0.8,1,0,0,1.247,"skip",0,NA,16.16
"1803","banner","glide",33,1,1,2.487,9,0.225,0,1,0,3.911,"",NA,NA,NA
"1803","prison","loaf",34,1,100,5.367,38,0.95,1,1,1,1.624,"loaf",1,NA,13.965
"1803","want","ascent",35,1,1,1.768,1,0.025,0,0,1,0.814,"",NA,NA,NA
"1803","grip","beach",36,1,100,9.647,12,0.3,1,1,1,1.247,"beach",1,NA,18.374
"1803","bleach","ruin",37,1,1,16.086,31,0.775,1,0,0,1.095,"ruin",1,NA,6.855
"1803","pork","emperor",38,1,1,2.151,7,0.175,1,1,1,0.839,"skip",0,NA,66.054
"1803","caring","skirt",39,1,1,11.046,3,0.075,0,1,0,2.775,"",NA,NA,NA
"1803","date","laugh",40,1,72,6.143,25,0.625,1,1,1,0.999,"laugh",1,NA,27.444
"1803","caring","skirt",1,2,1,11.046,3,0.075,0,1,0,2.775,"",NA,NA,NA
"1803","rock","milk",2,2,1,7.663,15,0.375,0,1,0,1.064,"",NA,NA,NA
"1803","fee","chowder",3,2,1,7.712,37,0.925,1,0,0,0.838,"skip",0,NA,20.743
"1803","forest","knob",4,2,1,2.079,8,0.2,0,0,1,0.703,"",NA,NA,NA
"1803","chicken","beet",5,2,1,19.031,19,0.475,0,1,0,0.83,"",NA,NA,NA
"1803","knock","otter",6,2,1,3.617,34,0.85,1,0,0,1.285,"door",0,NA,25.371
"1803","bacon","feud",7,2,1,2.91,39,0.975,0,0,1,2.863,"",NA,NA,NA
"1803","pea","bathtub",8,2,1,2.231,23,0.575,0,0,1,0.679,"",NA,NA,NA
"1803","risk","zero",9,2,100,20.909,2,0.05,1,1,1,8.589,"zero",1,NA,5.523
"1803","find","clown",10,2,1,3.567,26,0.65,0,1,0,1.839,"",NA,NA,NA
"1803","process","joker",11,2,1,6.591,36,0.9,1,0,0,0.734,"skip",0,NA,11.621
"1803","fan","feature",12,2,1,2.615,40,1,0,0,1,0.767,"",NA,NA,NA
"1803","replace","roach",13,2,1,3.127,32,0.8,1,0,0,1.247,"skip",0,NA,90.388
"1803","calf","annoy",14,2,1,2.015,11,0.275,0,0,1,0.711,"",NA,NA,NA
"1803","capital","figure",15,2,1,8.247,29,0.725,1,0,0,1.263,"skip",0,NA,16.765
"1803","plant","worm",16,2,1,2.799,20,0.5,0,0,1,0.695,"",NA,NA,NA
"1803","copy","bedroom",17,2,25,10.375,14,0.35,1,0,0,1.303,"paper",0,NA,50.254
"1803","shrink","mafia",18,2,1,6.063,27,0.675,1,0,0,1.159,"manager",0,NA,10.255
"1803","mill","feast",19,2,2,2.983,33,0.825,1,0,0,1.423,"skip",0,NA,7.455
"1803","remind","foam",20,2,1,2.039,16,0.4,0,0,1,0.798,"",NA,NA,NA
"1803","bullet","walkway",21,2,1,4.6,28,0.7,1,1,1,0.727,"skip",0,NA,58.468
"1803","date","laugh",22,2,72,6.143,25,0.625,1,1,1,0.999,"laugh",1,NA,11.127
"1803","grip","beach",23,2,100,9.647,12,0.3,1,1,1,1.247,"beach",1,NA,7.431
"1803","climax","saucer",24,2,1,13.182,24,0.6,0,1,0,0.839,"",NA,NA,NA
"1803","bias","sirloin",25,2,25,5.255,18,0.45,1,1,1,5.207,"skip",0,NA,65.044
"1803","banner","glide",26,2,1,2.487,9,0.225,0,1,0,3.911,"",NA,NA,NA
"1803","link","crisis",27,2,1,1.983,10,0.25,0,0,1,0.719,"",NA,NA,NA
"1803","glue","force",28,2,1,6.543,4,0.1,0,1,0,2.023,"",NA,NA,NA
"1803","pork","emperor",29,2,1,2.151,7,0.175,1,1,1,0.839,"power",0,NA,26.112
"1803","prison","loaf",30,2,100,5.367,38,0.95,1,1,1,1.624,"loaf",1,NA,4.143
"1803","anger","decay",31,2,100,5.758,13,0.325,1,1,1,1.071,"decay",1,NA,45.022
"1803","collect","loyalty",32,2,1,15.527,35,0.875,1,0,0,0.599,"skip",0,NA,10.815
"1803","visit","glove",33,2,1,6.543,22,0.55,0,1,0,1.072,"",NA,NA,NA
"1803","bleach","ruin",34,2,1,16.086,31,0.775,1,0,0,1.095,"ruin",1,NA,28.862
"1803","want","ascent",35,2,1,1.768,1,0.025,0,0,1,0.814,"",NA,NA,NA
"1803","need","faucet",36,2,1,4.047,21,0.525,0,1,0,1.276,"",NA,NA,NA
"1803","port","cinema",37,2,1,2.072,6,0.15,0,0,1,0.888,"",NA,NA,NA
"1803","biology","temper",38,2,74,11.111,30,0.75,1,1,1,0.912,"temper",1,NA,16.773
"1803","nerve","bumper",39,2,1,5.015,5,0.125,0,1,0,0.83,"",NA,NA,NA
"1803","smother","surgery",40,2,21,18.95,17,0.425,1,1,1,1.223,"skip",0,NA,12.669
"1803","forest","knob",1,3,1,2.079,8,0.2,0,0,1,0.703,"",NA,NA,NA
"1803","plant","worm",2,3,1,2.799,20,0.5,0,0,1,0.695,"",NA,NA,NA
"1803","port","cinema",3,3,1,2.072,6,0.15,0,0,1,0.888,"",NA,NA,NA
"1803","nerve","bumper",4,3,1,5.015,5,0.125,0,1,0,0.83,"",NA,NA,NA
"1803","bullet","walkway",5,3,1,4.6,28,0.7,1,1,1,0.727,"skip",0,NA,29.833
"1803","shrink","mafia",6,3,1,6.063,27,0.675,1,0,0,1.159,"skip",0,NA,21.879
"1803","link","crisis",7,3,1,1.983,10,0.25,0,0,1,0.719,"",NA,NA,NA
"1803","climax","saucer",8,3,1,13.182,24,0.6,0,1,0,0.839,"",NA,NA,NA
"1803","pea","bathtub",9,3,1,2.231,23,0.575,0,0,1,0.679,"",NA,NA,NA
"1803","process","joker",10,3,1,6.591,36,0.9,1,0,0,0.734,"skip",0,NA,12.604
"1803","biology","temper",11,3,74,11.111,30,0.75,1,1,1,0.912,"temper",1,NA,5.416
"1803","bias","sirloin",12,3,25,5.255,18,0.45,1,1,1,5.207,"skip",0,NA,6.493
"1803","risk","zero",13,3,100,20.909,2,0.05,1,1,1,8.589,"zero",1,NA,4.175
"1803","glue","force",14,3,1,6.543,4,0.1,0,1,0,2.023,"",NA,NA,NA
"1803","rock","milk",15,3,1,7.663,15,0.375,0,1,0,1.064,"",NA,NA,NA
"1803","visit","glove",16,3,1,6.543,22,0.55,0,1,0,1.072,"",NA,NA,NA
"1803","smother","surgery",17,3,21,18.95,17,0.425,1,1,1,1.223,"skip",0,NA,10.851
"1803","prison","loaf",18,3,100,5.367,38,0.95,1,1,1,1.624,"loaf",1,NA,4.367
"1803","grip","beach",19,3,100,9.647,12,0.3,1,1,1,1.247,"beach",1,NA,6.855
"1803","banner","glide",20,3,1,2.487,9,0.225,0,1,0,3.911,"",NA,NA,NA
"1803","anger","decay",21,3,100,5.758,13,0.325,1,1,1,1.071,"decay",1,NA,19.645
"1803","bleach","ruin",22,3,1,16.086,31,0.775,1,0,0,1.095,"ruin",1,NA,4.158
"1803","fan","feature",23,3,1,2.615,40,1,0,0,1,0.767,"",NA,NA,NA
"1803","replace","roach",24,3,1,3.127,32,0.8,1,0,0,1.247,"skip",0,NA,12.981
"1803","mill","feast",25,3,2,2.983,33,0.825,1,0,0,1.423,"skip",0,NA,4.343
"1803","chicken","beet",26,3,1,19.031,19,0.475,0,1,0,0.83,"",NA,NA,NA
"1803","capital","figure",27,3,1,8.247,29,0.725,1,0,0,1.263,"skip",0,NA,12.702
"1803","copy","bedroom",28,3,25,10.375,14,0.35,1,0,0,1.303,"skip",0,NA,11.152
"1803","find","clown",29,3,1,3.567,26,0.65,0,1,0,1.839,"",NA,NA,NA
"1803","bacon","feud",30,3,1,2.91,39,0.975,0,0,1,2.863,"",NA,NA,NA
"1803","need","faucet",31,3,1,4.047,21,0.525,0,1,0,1.276,"",NA,NA,NA
"1803","want","ascent",32,3,1,1.768,1,0.025,0,0,1,0.814,"",NA,NA,NA
"1803","knock","otter",33,3,1,3.617,34,0.85,1,0,0,1.285,"skip",0,NA,17.753
"1803","calf","annoy",34,3,1,2.015,11,0.275,0,0,1,0.711,"",NA,NA,NA
"1803","date","laugh",35,3,72,6.143,25,0.625,1,1,1,0.999,"laugh",1,NA,7.078
"1803","remind","foam",36,3,1,2.039,16,0.4,0,0,1,0.798,"",NA,NA,NA
"1803","caring","skirt",37,3,1,11.046,3,0.075,0,1,0,2.775,"",NA,NA,NA
"1803","collect","loyalty",38,3,1,15.527,35,0.875,1,0,0,0.599,"skip",0,NA,24.003
"1803","fee","chowder",39,3,1,7.712,37,0.925,1,0,0,0.838,"skip",0,NA,6.895
"1803","pork","emperor",40,3,1,2.151,7,0.175,1,1,1,0.839,"power",0,NA,8.175
"2237","need","faucet",1,1,1,2.871,11,0.275,0,1,0,1.44,"",NA,NA,NA
"2237","fan","feature",2,1,1,4.783,7,0.175,0,1,0,1.207,"",NA,NA,NA
"2237","bullet","walkway",3,1,10,11.072,35,0.875,1,1,1,1.104,"sidewalk",0,NA,6.516
"2237","copy","bedroom",4,1,1,3.534,22,0.55,0,1,0,0.767,"",NA,NA,NA
"2237","knock","otter",5,1,1,1.872,17,0.425,0,0,1,1.856,"",NA,NA,NA
"2237","climax","saucer",6,1,50,11.446,4,0.1,1,1,1,19.367,"saucer",1,NA,5.885
"2237","pea","bathtub",7,1,30,11.176,30,0.75,1,1,1,0.832,"bathtub",1,NA,5.24
"2237","rock","milk",8,1,30,6.528,24,0.6,1,1,1,1.68,"milk",1,NA,4.175
"2237","plant","worm",9,1,1,2.394,40,1,0,0,1,0.864,"",NA,NA,NA
"2237","glue","force",10,1,1,6.983,34,0.85,1,0,0,1.046,"golf",0,NA,44.622
"2237","bacon","feud",11,1,1,5.696,31,0.775,1,0,0,0.672,"ballet",0,NA,21.272
"2237","remind","foam",12,1,1,2.055,12,0.3,1,1,1,0.864,"word",0,NA,24.272
"2237","bias","sirloin",13,1,1,4.888,10,0.25,0,0,1,0.615,"",NA,NA,NA
"2237","nerve","bumper",14,1,1,2.774,33,0.825,0,0,1,1.031,"",NA,NA,NA
"2237","pork","emperor",15,1,35,10.191,19,0.475,1,1,1,0.944,"emporer",0,NA,6.222
"2237","find","clown",16,1,1,2.182,21,0.525,0,0,1,0.959,"",NA,NA,NA
"2237","grip","beach",17,1,1,4.96,14,0.35,0,1,0,1.439,"",NA,NA,NA
"2237","want","ascent",18,1,1,4.28,23,0.575,0,1,0,0.935,"",NA,NA,NA
"2237","calf","annoy",19,1,1,7.04,1,0.025,1,1,1,0.847,"annoy",1,NA,9.588
"2237","fee","chowder",20,1,1,3.216,9,0.225,0,1,0,1.191,"",NA,NA,NA
"2237","collect","loyalty",21,1,1,2.136,3,0.075,0,0,1,0.76,"",NA,NA,NA
"2237","prison","loaf",22,1,1,3.207,16,0.4,0,0,1,0.887,"",NA,NA,NA
"2237","mill","feast",23,1,1,2.863,37,0.925,1,0,0,0.992,"plant",0,NA,25.427
"2237","anger","decay",24,1,1,2.871,29,0.725,1,0,0,1.159,"diary",0,NA,9.031
"2237","forest","knob",25,1,1,6.759,32,0.8,1,0,0,4.168,"skip",0,NA,18.846
"2237","date","laugh",26,1,5,12.902,6,0.15,1,0,0,0.896,"long",0,NA,8.647
"2237","replace","roach",27,1,1,3.648,36,0.9,1,0,0,1.04,"skip",0,NA,16.448
"2237","risk","zero",28,1,1,2.64,2,0.05,0,0,1,0.848,"",NA,NA,NA
"2237","shrink","mafia",29,1,1,2.911,27,0.675,1,0,0,0.696,"skip",0,NA,9.728
"2237","banner","glide",30,1,1,4.96,38,0.95,0,0,1,1.536,"",NA,NA,NA
"2237","smother","surgery",31,1,1,5.76,13,0.325,0,1,0,1.119,"",NA,NA,NA
"2237","biology","temper",32,1,1,6.976,20,0.5,0,1,0,1.143,"",NA,NA,NA
"2237","link","crisis",33,1,35,24.775,5,0.125,1,0,0,2.182,"frantic",0,NA,17.324
"2237","port","cinema",34,1,20,8.136,15,0.375,1,1,1,2.199,"skip",0,NA,11.12
"2237","capital","figure",35,1,1,5.679,28,0.7,1,0,0,1.087,"skip",0,NA,22.608
"2237","caring","skirt",36,1,1,5.102,8,0.2,0,1,0,1.342,"",NA,NA,NA
"2237","visit","glove",37,1,1,3.528,18,0.45,0,1,0,0.776,"",NA,NA,NA
"2237","bleach","ruin",38,1,10,11.447,25,0.625,1,1,1,0.792,"skip",0,NA,21.974
"2237","chicken","beet",39,1,10,15.454,26,0.65,1,1,1,0.967,"beet",1,NA,4.367
"2237","process","joker",40,1,1,8.166,39,0.975,0,0,1,1.452,"",NA,NA,NA
"2237","replace","roach",1,2,1,3.648,36,0.9,1,0,0,1.04,"skip",0,NA,33.654
"2237","collect","loyalty",2,2,1,2.136,3,0.075,0,0,1,0.76,"",NA,NA,NA
"2237","chicken","beet",3,2,10,15.454,26,0.65,1,1,1,0.967,"beet",1,NA,3.775
"2237","forest","knob",4,2,1,6.759,32,0.8,1,0,0,4.168,"skip",0,NA,7.039
"2237","prison","loaf",5,2,1,3.207,16,0.4,0,0,1,0.887,"",NA,NA,NA
"2237","plant","worm",6,2,1,2.394,40,1,0,0,1,0.864,"",NA,NA,NA
"2237","shrink","mafia",7,2,1,2.911,27,0.675,1,0,0,0.696,"skip",0,NA,7.439
"2237","pea","bathtub",8,2,30,11.176,30,0.75,1,1,1,0.832,"bathtub",1,NA,4.831
"2237","rock","milk",9,2,30,6.528,24,0.6,1,1,1,1.68,"milk",1,NA,3.808
"2237","fee","chowder",10,2,1,3.216,9,0.225,0,1,0,1.191,"",NA,NA,NA
"2237","biology","temper",11,2,1,6.976,20,0.5,0,1,0,1.143,"",NA,NA,NA
"2237","find","clown",12,2,1,2.182,21,0.525,0,0,1,0.959,"",NA,NA,NA
"2237","visit","glove",13,2,1,3.528,18,0.45,0,1,0,0.776,"",NA,NA,NA
"2237","fan","feature",14,2,1,4.783,7,0.175,0,1,0,1.207,"",NA,NA,NA
"2237","caring","skirt",15,2,1,5.102,8,0.2,0,1,0,1.342,"",NA,NA,NA
"2237","climax","saucer",16,2,50,11.446,4,0.1,1,1,1,19.367,"saucer",1,NA,4.417
"2237","anger","decay",17,2,1,2.871,29,0.725,1,0,0,1.159,"skip",0,NA,6.639
"2237","banner","glide",18,2,1,4.96,38,0.95,0,0,1,1.536,"",NA,NA,NA
"2237","mill","feast",19,2,1,2.863,37,0.925,1,0,0,0.992,"skip",0,NA,5.83
"2237","process","joker",20,2,1,8.166,39,0.975,0,0,1,1.452,"",NA,NA,NA
"2237","link","crisis",21,2,35,24.775,5,0.125,1,0,0,2.182,"frantic",0,NA,5.159
"2237","port","cinema",22,2,20,8.136,15,0.375,1,1,1,2.199,"skip",0,NA,4.152
"2237","smother","surgery",23,2,1,5.76,13,0.325,0,1,0,1.119,"",NA,NA,NA
"2237","capital","figure",24,2,1,5.679,28,0.7,1,0,0,1.087,"skip",0,NA,3.646
"2237","need","faucet",25,2,1,2.871,11,0.275,0,1,0,1.44,"",NA,NA,NA
"2237","want","ascent",26,2,1,4.28,23,0.575,0,1,0,0.935,"",NA,NA,NA
"2237","date","laugh",27,2,5,12.902,6,0.15,1,0,0,0.896,"skip",0,NA,3.726
"2237","bleach","ruin",28,2,10,11.447,25,0.625,1,1,1,0.792,"skip",0,NA,3.847
"2237","calf","annoy",29,2,1,7.04,1,0.025,1,1,1,0.847,"annoy",1,NA,4.328
"2237","bacon","feud",30,2,1,5.696,31,0.775,1,0,0,0.672,"skip",0,NA,6.367
"2237","nerve","bumper",31,2,1,2.774,33,0.825,0,0,1,1.031,"",NA,NA,NA
"2237","glue","force",32,2,1,6.983,34,0.85,1,0,0,1.046,"skip",0,NA,3.79
"2237","grip","beach",33,2,1,4.96,14,0.35,0,1,0,1.439,"",NA,NA,NA
"2237","risk","zero",34,2,1,2.64,2,0.05,0,0,1,0.848,"",NA,NA,NA
"2237","bias","sirloin",35,2,1,4.888,10,0.25,0,0,1,0.615,"",NA,NA,NA
"2237","knock","otter",36,2,1,1.872,17,0.425,0,0,1,1.856,"",NA,NA,NA
"2237","bullet","walkway",37,2,10,11.072,35,0.875,1,1,1,1.104,"sidewalk",0,NA,5.773
"2237","copy","bedroom",38,2,1,3.534,22,0.55,0,1,0,0.767,"",NA,NA,NA
"2237","remind","foam",39,2,1,2.055,12,0.3,1,1,1,0.864,"skip",0,NA,3.671
"2237","pork","emperor",40,2,35,10.191,19,0.475,1,1,1,0.944,"emporer",0,NA,4.895
"2237","pea","bathtub",1,3,30,11.176,30,0.75,1,1,1,0.832,"bathtub",1,NA,5.55
"2237","plant","worm",2,3,1,2.394,40,1,0,0,1,0.864,"",NA,NA,NA
"2237","grip","beach",3,3,1,4.96,14,0.35,0,1,0,1.439,"",NA,NA,NA
"2237","want","ascent",4,3,1,4.28,23,0.575,0,1,0,0.935,"",NA,NA,NA
"2237","process","joker",5,3,1,8.166,39,0.975,0,0,1,1.452,"",NA,NA,NA
"2237","shrink","mafia",6,3,1,2.911,27,0.675,1,0,0,0.696,"skip",0,NA,3.878
"2237","collect","loyalty",7,3,1,2.136,3,0.075,0,0,1,0.76,"",NA,NA,NA
"2237","rock","milk",8,3,30,6.528,24,0.6,1,1,1,1.68,"milk",1,NA,4.855
"2237","port","cinema",9,3,20,8.136,15,0.375,1,1,1,2.199,"skip",0,NA,3.848
"2237","mill","feast",10,3,1,2.863,37,0.925,1,0,0,0.992,"skip",0,NA,3
"2237","find","clown",11,3,1,2.182,21,0.525,0,0,1,0.959,"",NA,NA,NA
"2237","fee","chowder",12,3,1,3.216,9,0.225,0,1,0,1.191,"",NA,NA,NA
"2237","copy","bedroom",13,3,1,3.534,22,0.55,0,1,0,0.767,"",NA,NA,NA
"2237","banner","glide",14,3,1,4.96,38,0.95,0,0,1,1.536,"",NA,NA,NA
"2237","need","faucet",15,3,1,2.871,11,0.275,0,1,0,1.44,"",NA,NA,NA
"2237","bleach","ruin",16,3,10,11.447,25,0.625,1,1,1,0.792,"skip",0,NA,4.193
"2237","bullet","walkway",17,3,10,11.072,35,0.875,1,1,1,1.104,"sidewalk",0,NA,4.392
"2237","caring","skirt",18,3,1,5.102,8,0.2,0,1,0,1.342,"",NA,NA,NA
"2237","remind","foam",19,3,1,2.055,12,0.3,1,1,1,0.864,"skip",0,NA,4.999
"2237","date","laugh",20,3,5,12.902,6,0.15,1,0,0,0.896,"skip",0,NA,4.272
"2237","chicken","beet",21,3,10,15.454,26,0.65,1,1,1,0.967,"beet",1,NA,3.383
"2237","prison","loaf",22,3,1,3.207,16,0.4,0,0,1,0.887,"",NA,NA,NA
"2237","fan","feature",23,3,1,4.783,7,0.175,0,1,0,1.207,"",NA,NA,NA
"2237","anger","decay",24,3,1,2.871,29,0.725,1,0,0,1.159,"skip",0,NA,3.677
"2237","capital","figure",25,3,1,5.679,28,0.7,1,0,0,1.087,"skip",0,NA,4.744
"2237","pork","emperor",26,3,35,10.191,19,0.475,1,1,1,0.944,"emporer",0,NA,4.647
"2237","biology","temper",27,3,1,6.976,20,0.5,0,1,0,1.143,"",NA,NA,NA
"2237","replace","roach",28,3,1,3.648,36,0.9,1,0,0,1.04,"skip",0,NA,3.672
"2237","bias","sirloin",29,3,1,4.888,10,0.25,0,0,1,0.615,"",NA,NA,NA
"2237","bacon","feud",30,3,1,5.696,31,0.775,1,0,0,0.672,"skip",0,NA,3.743
"2237","climax","saucer",31,3,50,11.446,4,0.1,1,1,1,19.367,"saucer",1,NA,3.401
"2237","glue","force",32,3,1,6.983,34,0.85,1,0,0,1.046,"skip",0,NA,5.111
"2237","visit","glove",33,3,1,3.528,18,0.45,0,1,0,0.776,"",NA,NA,NA
"2237","risk","zero",34,3,1,2.64,2,0.05,0,0,1,0.848,"",NA,NA,NA
"2237","calf","annoy",35,3,1,7.04,1,0.025,1,1,1,0.847,"annoy",1,NA,5.645
"2237","forest","knob",36,3,1,6.759,32,0.8,1,0,0,4.168,"skip",0,NA,3.695
"2237","nerve","bumper",37,3,1,2.774,33,0.825,0,0,1,1.031,"",NA,NA,NA
"2237","knock","otter",38,3,1,1.872,17,0.425,0,0,1,1.856,"",NA,NA,NA
"2237","link","crisis",39,3,35,24.775,5,0.125,1,0,0,2.182,"frantic",0,NA,4.862
"2237","smother","surgery",40,3,1,5.76,13,0.325,0,1,0,1.119,"",NA,NA,NA
"3109","collect","loyalty",1,1,17,4.059,8,0.2,0,1,0,1.485,"",NA,NA,NA
"3109","bacon","feud",2,1,86,3.592,34,0.85,1,1,1,1.079,"feud",1,NA,54.82
"3109","pork","emperor",3,1,57,3.099,6,0.15,0,0,1,0.956,"",NA,NA,NA
"3109","want","ascent",4,1,82,18.112,14,0.35,1,0,0,2.148,"foam",0,NA,38.941
"3109","need","faucet",5,1,9,5.165,40,1,0,1,0,0.932,"",NA,NA,NA
"3109","biology","temper",6,1,27,7.128,17,0.425,0,1,0,1.33,"",NA,NA,NA
"3109","caring","skirt",7,1,99,4.454,7,0.175,1,1,1,1.25,"glide",0,NA,28.508
"3109","prison","loaf",8,1,73,2.237,27,0.675,0,0,1,0.866,"",NA,NA,NA
"3109","plant","worm",9,1,72,2.387,4,0.1,1,0,0,1.155,"saucer",0,NA,17.293
"3109","banner","glide",10,1,78,3.453,30,0.75,1,0,0,1.983,"copy",0,NA,48.131
"3109","copy","bedroom",11,1,79,3.645,3,0.075,1,1,1,1.196,"bedroom",1,NA,7.957
"3109","replace","roach",12,1,84,2.343,5,0.125,1,1,1,2.128,"laugh",0,NA,6.502
"3109","nerve","bumper",13,1,29,2.784,22,0.55,1,0,0,1.541,"bumper",1,NA,20.987
"3109","process","joker",14,1,71,3.584,19,0.475,0,0,1,1.207,"",NA,NA,NA
"3109","chicken","beet",15,1,92,7.356,13,0.325,1,1,1,3.704,"mafia",0,NA,48.4
"3109","link","crisis",16,1,78,7.172,35,0.875,1,1,1,2.124,"glide",0,NA,41.988
"3109","smother","surgery",17,1,74,2.208,38,0.95,1,0,0,1.468,"surgery",1,NA,13.328
"3109","shrink","mafia",18,1,76,4.196,29,0.725,1,1,1,1.985,"mafia",1,NA,14.418
"3109","fan","feature",19,1,76,2.683,11,0.275,1,1,1,1.393,"otter",0,NA,14.013
"3109","climax","saucer",20,1,31,3.202,2,0.05,1,0,0,1.02,"bedroom",0,NA,42.816
"3109","grip","beach",21,1,69,2.942,21,0.525,0,0,1,1.087,"",NA,NA,NA
"3109","calf","annoy",22,1,32,4.756,20,0.5,1,0,0,2.09,"annoy",1,NA,21.689
"3109","bullet","walkway",23,1,68,2.167,9,0.225,0,0,1,2.044,"",NA,NA,NA
"3109","rock","milk",24,1,71,3.981,25,0.625,0,0,1,2.091,"",NA,NA,NA
"3109","mill","feast",25,1,81,2.923,15,0.375,1,1,1,2.121,"feud",0,NA,9.762
"3109","forest","knob",26,1,65,2.656,23,0.575,0,0,1,1.098,"",NA,NA,NA
"3109","capital","figure",27,1,78,3.217,32,0.8,1,0,0,1.529,"figure",1,NA,18.766
"3109","bias","sirloin",28,1,18,16.131,37,0.925,0,1,0,2.045,"",NA,NA,NA
"3109","fee","chowder",29,1,93,4.311,12,0.3,1,1,1,2.53,"date",0,NA,6.796
"3109","remind","foam",30,1,20,3.452,31,0.775,0,1,0,2.144,"",NA,NA,NA
"3109","bleach","ruin",31,1,31,5.434,33,0.825,1,0,0,1.688,"ruin",1,NA,17.274
"3109","glue","force",32,1,74,3.083,28,0.7,0,0,1,1.184,"",NA,NA,NA
"3109","port","cinema",33,1,68,2.409,18,0.45,0,0,1,1.734,"",NA,NA,NA
"3109","risk","zero",34,1,27,2.971,10,0.25,0,1,0,1.301,"",NA,NA,NA
"3109","visit","glove",35,1,26,3.759,24,0.6,0,1,0,1.714,"",NA,NA,NA
"3109","pea","bathtub",36,1,56,22.738,36,0.9,1,0,0,10.239,"bathtub",1,NA,19.668
"3109","knock","otter",37,1,16,3.987,26,0.65,0,1,0,1.04,"",NA,NA,NA
"3109","find","clown",38,1,1,7.675,1,0.025,0,0,1,12.477,"",NA,NA,NA
"3109","date","laugh",39,1,16,3.388,16,0.4,0,1,0,1.371,"",NA,NA,NA
"3109","anger","decay",40,1,28,4.272,39,0.975,0,1,0,1.448,"",NA,NA,NA
"3109","anger","decay",1,2,28,4.272,39,0.975,0,1,0,1.448,"",NA,NA,NA
"3109","port","cinema",2,2,68,2.409,18,0.45,0,0,1,1.734,"",NA,NA,NA
"3109","visit","glove",3,2,26,3.759,24,0.6,0,1,0,1.714,"",NA,NA,NA
"3109","plant","worm",4,2,72,2.387,4,0.1,1,0,0,1.155,"worm",1,NA,29.808
"3109","process","joker",5,2,71,3.584,19,0.475,0,0,1,1.207,"",NA,NA,NA
"3109","copy","bedroom",6,2,79,3.645,3,0.075,1,1,1,1.196,"bedroom",1,NA,35.533
"3109","banner","glide",7,2,78,3.453,30,0.75,1,0,0,1.983,"joker",0,NA,14.54
"3109","nerve","bumper",8,2,29,2.784,22,0.55,1,0,0,1.541,"bumper",1,NA,22.863
"3109","grip","beach",9,2,69,2.942,21,0.525,0,0,1,1.087,"",NA,NA,NA
"3109","biology","temper",10,2,27,7.128,17,0.425,0,1,0,1.33,"",NA,NA,NA
"3109","smother","surgery",11,2,74,2.208,38,0.95,1,0,0,1.468,"surgery",1,NA,32.697
"3109","chicken","beet",12,2,92,7.356,13,0.325,1,1,1,3.704,"dinner",0,NA,7.434
"3109","want","ascent",13,2,82,18.112,14,0.35,1,0,0,2.148,"ascent",1,NA,12.828
"3109","fee","chowder",14,2,93,4.311,12,0.3,1,1,1,2.53,"loaf",0,NA,12.082
"3109","caring","skirt",15,2,99,4.454,7,0.175,1,1,1,1.25,"skirt",1,NA,21.966
"3109","date","laugh",16,2,16,3.388,16,0.4,0,1,0,1.371,"",NA,NA,NA
"3109","remind","foam",17,2,20,3.452,31,0.775,0,1,0,2.144,"",NA,NA,NA
"3109","prison","loaf",18,2,73,2.237,27,0.675,0,0,1,0.866,"",NA,NA,NA
"3109","climax","saucer",19,2,31,3.202,2,0.05,1,0,0,1.02,"saucer",1,NA,27.898
"3109","calf","annoy",20,2,32,4.756,20,0.5,1,0,0,2.09,"pork",0,NA,17.083
"3109","pork","emperor",21,2,57,3.099,6,0.15,0,0,1,0.956,"",NA,NA,NA
"3109","rock","milk",22,2,71,3.981,25,0.625,0,0,1,2.091,"",NA,NA,NA
"3109","mill","feast",23,2,81,2.923,15,0.375,1,1,1,2.121,"feast",1,NA,26.243
"3109","find","clown",24,2,1,7.675,1,0.025,0,0,1,12.477,"",NA,NA,NA
"3109","capital","figure",25,2,78,3.217,32,0.8,1,0,0,1.529,"banner",0,NA,14.441
"3109","collect","loyalty",26,2,17,4.059,8,0.2,0,1,0,1.485,"",NA,NA,NA
"3109","bullet","walkway",27,2,68,2.167,9,0.225,0,0,1,2.044,"",NA,NA,NA
"3109","fan","feature",28,2,76,2.683,11,0.275,1,1,1,1.393,"feature",1,NA,13.56
"3109","bleach","ruin",29,2,31,5.434,33,0.825,1,0,0,1.688,"feud",0,NA,29.278
"3109","need","faucet",30,2,9,5.165,40,1,0,1,0,0.932,"",NA,NA,NA
"3109","bias","sirloin",31,2,18,16.131,37,0.925,0,1,0,2.045,"",NA,NA,NA
"3109","forest","knob",32,2,65,2.656,23,0.575,0,0,1,1.098,"",NA,NA,NA
"3109","knock","otter",33,2,16,3.987,26,0.65,0,1,0,1.04,"",NA,NA,NA
"3109","risk","zero",34,2,27,2.971,10,0.25,0,1,0,1.301,"",NA,NA,NA
"3109","bacon","feud",35,2,86,3.592,34,0.85,1,1,1,1.079,"calf",0,NA,9.217
"3109","glue","force",36,2,74,3.083,28,0.7,0,0,1,1.184,"",NA,NA,NA
"3109","pea","bathtub",37,2,56,22.738,36,0.9,1,0,0,10.239,"link",0,NA,6.685
"3109","shrink","mafia",38,2,76,4.196,29,0.725,1,1,1,1.985,"clown",0,NA,11.463
"3109","replace","roach",39,2,84,2.343,5,0.125,1,1,1,2.128,"find",0,NA,6.147
"3109","link","crisis",40,2,78,7.172,35,0.875,1,1,1,2.124,"port",0,NA,10.077
"3109","smother","surgery",1,3,74,2.208,38,0.95,1,0,0,1.468,"find",0,NA,11.948
"3109","nerve","bumper",2,3,29,2.784,22,0.55,1,0,0,1.541,"clown",0,NA,6.543
"3109","shrink","mafia",3,3,76,4.196,29,0.725,1,1,1,1.985,"port",0,NA,7.54
"3109","fan","feature",4,3,76,2.683,11,0.275,1,1,1,1.393,"feature",1,NA,5.375
"3109","calf","annoy",5,3,32,4.756,20,0.5,1,0,0,2.09,"pork",0,NA,5.483
"3109","bullet","walkway",6,3,68,2.167,9,0.225,0,0,1,2.044,"",NA,NA,NA
"3109","link","crisis",7,3,78,7.172,35,0.875,1,1,1,2.124,"clown",0,NA,7.59
"3109","banner","glide",8,3,78,3.453,30,0.75,1,0,0,1.983,"find",0,NA,6.59
"3109","copy","bedroom",9,3,79,3.645,3,0.075,1,1,1,1.196,"crisis",0,NA,9.581
"3109","plant","worm",10,3,72,2.387,4,0.1,1,0,0,1.155,"annoy",0,NA,7.876
"3109","bias","sirloin",11,3,18,16.131,37,0.925,0,1,0,2.045,"",NA,NA,NA
"3109","capital","figure",12,3,78,3.217,32,0.8,1,0,0,1.529,"bacon",0,NA,7.752
"3109","prison","loaf",13,3,73,2.237,27,0.675,0,0,1,0.866,"",NA,NA,NA
"3109","port","cinema",14,3,68,2.409,18,0.45,0,0,1,1.734,"",NA,NA,NA
"3109","collect","loyalty",15,3,17,4.059,8,0.2,0,1,0,1.485,"",NA,NA,NA
"3109","mill","feast",16,3,81,2.923,15,0.375,1,1,1,2.121,"feud",0,NA,6.363
"3109","knock","otter",17,3,16,3.987,26,0.65,0,1,0,1.04,"",NA,NA,NA
"3109","forest","knob",18,3,65,2.656,23,0.575,0,0,1,1.098,"",NA,NA,NA
"3109","need","faucet",19,3,9,5.165,40,1,0,1,0,0.932,"",NA,NA,NA
"3109","caring","skirt",20,3,99,4.454,7,0.175,1,1,1,1.25,"bumper",0,NA,11.322
"3109","bacon","feud",21,3,86,3.592,34,0.85,1,1,1,1.079,"milk",0,NA,12.3
"3109","glue","force",22,3,74,3.083,28,0.7,0,0,1,1.184,"",NA,NA,NA
"3109","grip","beach",23,3,69,2.942,21,0.525,0,0,1,1.087,"",NA,NA,NA
"3109","risk","zero",24,3,27,2.971,10,0.25,0,1,0,1.301,"",NA,NA,NA
"3109","pea","bathtub",25,3,56,22.738,36,0.9,1,0,0,10.239,"pods",0,NA,7.855
"3109","date","laugh",26,3,16,3.388,16,0.4,0,1,0,1.371,"",NA,NA,NA
"3109","visit","glove",27,3,26,3.759,24,0.6,0,1,0,1.714,"",NA,NA,NA
"3109","find","clown",28,3,1,7.675,1,0.025,0,0,1,12.477,"",NA,NA,NA
"3109","want","ascent",29,3,82,18.112,14,0.35,1,0,0,2.148,"need",0,NA,4.462
"3109","rock","milk",30,3,71,3.981,25,0.625,0,0,1,2.091,"",NA,NA,NA
"3109","process","joker",31,3,71,3.584,19,0.475,0,0,1,1.207,"",NA,NA,NA
"3109","climax","saucer",32,3,31,3.202,2,0.05,1,0,0,1.02,"chowder",0,NA,10.547
"3109","biology","temper",33,3,27,7.128,17,0.425,0,1,0,1.33,"",NA,NA,NA
"3109","replace","roach",34,3,84,2.343,5,0.125,1,1,1,2.128,"visit",0,NA,10.199
"3109","chicken","beet",35,3,92,7.356,13,0.325,1,1,1,3.704,"dinner",0,NA,5.236
"3109","remind","foam",36,3,20,3.452,31,0.775,0,1,0,2.144,"",NA,NA,NA
"3109","pork","emperor",37,3,57,3.099,6,0.15,0,0,1,0.956,"",NA,NA,NA
"3109","fee","chowder",38,3,93,4.311,12,0.3,1,1,1,2.53,"remind",0,NA,8.625
"3109","bleach","ruin",39,3,31,5.434,33,0.825,1,0,0,1.688,"buy",0,NA,9.03
"3109","anger","decay",40,3,28,4.272,39,0.975,0,1,0,1.448,"",NA,NA,NA
"4214","process","joker",1,1,1,1.774,25,0.625,0,1,0,0.822,"",NA,NA,NA
"4214","replace","roach",2,1,1,1.279,15,0.375,0,1,0,0.71,"",NA,NA,NA
"4214","forest","knob",3,1,1,5.638,32,0.8,1,1,1,0.934,"tree",0,NA,33.085
"4214","collect","loyalty",4,1,1,1.47,38,0.95,0,0,1,0.71,"",NA,NA,NA
"4214","port","cinema",5,1,1,2.334,18,0.45,0,1,0,0.727,"",NA,NA,NA
"4214","capital","figure",6,1,1,4.895,3,0.075,1,0,0,0.862,"skip",0,NA,10.243
"4214","fee","chowder",7,1,1,4.693,2,0.05,1,1,1,6.167,"skip",0,NA,3.135
"4214","fan","feature",8,1,1,1.807,5,0.125,1,0,0,0.894,"skip",0,NA,2.774
"4214","climax","saucer",9,1,1,1.846,37,0.925,1,1,1,0.91,"skip",0,NA,2.959
"4214","bleach","ruin",10,1,1,2.983,33,0.825,1,1,1,0.614,"skip",0,NA,17.503
"4214","need","faucet",11,1,1,3.207,7,0.175,1,0,0,0.822,"skip",0,NA,2.559
"4214","smother","surgery",12,1,100,3.646,24,0.6,0,1,0,0.807,"",NA,NA,NA
"4214","bacon","feud",13,1,1,1.79,40,1,0,0,1,0.703,"",NA,NA,NA
"4214","grip","beach",14,1,76,9.536,10,0.25,0,1,0,1.151,"",NA,NA,NA
"4214","biology","temper",15,1,1,1.638,30,0.75,1,1,1,0.631,"temper",1,NA,14.367
"4214","visit","glove",16,1,1,1.526,23,0.575,0,0,1,0.718,"",NA,NA,NA
"4214","chicken","beet",17,1,1,38.453,1,0.025,1,0,0,18.197,"beet",1,NA,16.077
"4214","link","crisis",18,1,1,12.254,16,0.4,0,1,0,1.087,"",NA,NA,NA
"4214","remind","foam",19,1,1,2.166,29,0.725,1,1,1,0.783,"skip",0,NA,3.053
"4214","risk","zero",20,1,1,1.742,39,0.975,1,1,1,0.68,"skip",0,NA,1.991
"4214","nerve","bumper",21,1,1,1.99,21,0.525,0,1,0,0.718,"",NA,NA,NA
"4214","mill","feast",22,1,1,1.654,9,0.225,0,0,1,0.903,"",NA,NA,NA
"4214","bullet","walkway",23,1,1,1.382,17,0.425,0,0,1,0.943,"",NA,NA,NA
"4214","rock","milk",24,1,1,1.55,35,0.875,1,1,1,1.255,"skip",0,NA,2.258
"4214","knock","otter",25,1,1,1.526,12,0.3,1,0,0,0.735,"skip",0,NA,1.879
"4214","pork","emperor",26,1,100,2.502,31,0.775,0,0,1,0.67,"",NA,NA,NA
"4214","bias","sirloin",27,1,1,2.006,36,0.9,0,0,1,1.015,"",NA,NA,NA
"4214","caring","skirt",28,1,1,2.557,27,0.675,1,1,1,0.963,"skip",0,NA,1.26
"4214","plant","worm",29,1,100,10.286,19,0.475,0,1,0,1.238,"",NA,NA,NA
"4214","pea","bathtub",30,1,1,1.903,11,0.275,1,0,0,0.871,"skip",0,NA,11.101
"4214","prison","loaf",31,1,100,3.366,20,0.5,0,0,1,0.558,"",NA,NA,NA
"4214","want","ascent",32,1,1,1.966,14,0.35,0,1,0,1.109,"",NA,NA,NA
"4214","shrink","mafia",33,1,1,1.782,6,0.15,1,0,0,6.791,"skip",0,NA,2.779
"4214","date","laugh",34,1,1,3.135,4,0.1,1,0,0,0.974,"skip",0,NA,1.624
"4214","find","clown",35,1,1,2.126,34,0.85,1,1,1,0.806,"skip",0,NA,1.454
"4214","banner","glide",36,1,1,1.576,22,0.55,0,1,0,0.718,"",NA,NA,NA
"4214","glue","force",37,1,1,1.374,13,0.325,1,0,0,0.886,"skip",0,NA,2.582
"4214","calf","annoy",38,1,100,2.359,26,0.65,0,0,1,0.702,"",NA,NA,NA
"4214","anger","decay",39,1,100,4.167,28,0.7,0,0,1,1.022,"",NA,NA,NA
"4214","copy","bedroom",40,1,1,1.926,8,0.2,1,0,0,0.951,"skip",0,NA,2.361
"4214","fee","chowder",1,2,1,4.693,2,0.05,1,1,1,6.167,"skip",0,NA,2.547
"4214","risk","zero",2,2,1,1.742,39,0.975,1,1,1,0.68,"zero",1,NA,10.886
"4214","pea","bathtub",3,2,1,1.903,11,0.275,1,0,0,0.871,"skip",0,NA,2.214
"4214","nerve","bumper",4,2,1,1.99,21,0.525,0,1,0,0.718,"",NA,NA,NA
"4214","remind","foam",5,2,1,2.166,29,0.725,1,1,1,0.783,"skip",0,NA,1.717
"4214","bias","sirloin",6,2,1,2.006,36,0.9,0,0,1,1.015,"",NA,NA,NA
"4214","replace","roach",7,2,1,1.279,15,0.375,0,1,0,0.71,"",NA,NA,NA
"4214","capital","figure",8,2,1,4.895,3,0.075,1,0,0,0.862,"figure",1,NA,15.804
"4214","find","clown",9,2,1,2.126,34,0.85,1,1,1,0.806,"skip",0,NA,2.335
"4214","biology","temper",10,2,1,1.638,30,0.75,1,1,1,0.631,"temper",1,NA,10.663
"4214","bleach","ruin",11,2,1,2.983,33,0.825,1,1,1,0.614,"skip",0,NA,1.287
"4214","bullet","walkway",12,2,1,1.382,17,0.425,0,0,1,0.943,"",NA,NA,NA
"4214","climax","saucer",13,2,1,1.846,37,0.925,1,1,1,0.91,"V",0,NA,6.375
"4214","bacon","feud",14,2,1,1.79,40,1,0,0,1,0.703,"",NA,NA,NA
"4214","collect","loyalty",15,2,1,1.47,38,0.95,0,0,1,0.71,"",NA,NA,NA
"4214","pork","emperor",16,2,100,2.502,31,0.775,0,0,1,0.67,"",NA,NA,NA
"4214","fan","feature",17,2,1,1.807,5,0.125,1,0,0,0.894,"skip",0,NA,11.074
"4214","anger","decay",18,2,100,4.167,28,0.7,0,0,1,1.022,"",NA,NA,NA
"4214","forest","knob",19,2,1,5.638,32,0.8,1,1,1,0.934,"skip",0,NA,1.579
"4214","caring","skirt",20,2,1,2.557,27,0.675,1,1,1,0.963,"skip",0,NA,1.416
"4214","link","crisis",21,2,1,12.254,16,0.4,0,1,0,1.087,"",NA,NA,NA
"4214","rock","milk",22,2,1,1.55,35,0.875,1,1,1,1.255,"skip",0,NA,1.477
"4214","plant","worm",23,2,100,10.286,19,0.475,0,1,0,1.238,"",NA,NA,NA
"4214","calf","annoy",24,2,100,2.359,26,0.65,0,0,1,0.702,"",NA,NA,NA
"4214","copy","bedroom",25,2,1,1.926,8,0.2,1,0,0,0.951,"skip",0,NA,2.017
"4214","visit","glove",26,2,1,1.526,23,0.575,0,0,1,0.718,"",NA,NA,NA
"4214","date","laugh",27,2,1,3.135,4,0.1,1,0,0,0.974,"skip",0,NA,1.302
"4214","process","joker",28,2,1,1.774,25,0.625,0,1,0,0.822,"",NA,NA,NA
"4214","smother","surgery",29,2,100,3.646,24,0.6,0,1,0,0.807,"",NA,NA,NA
"4214","shrink","mafia",30,2,1,1.782,6,0.15,1,0,0,6.791,"skip",0,NA,1.261
"4214","glue","force",31,2,1,1.374,13,0.325,1,0,0,0.886,"skip",0,NA,1.47
"4214","chicken","beet",32,2,1,38.453,1,0.025,1,0,0,18.197,"beet",1,NA,7.927
"4214","mill","feast",33,2,1,1.654,9,0.225,0,0,1,0.903,"",NA,NA,NA
"4214","prison","loaf",34,2,100,3.366,20,0.5,0,0,1,0.558,"",NA,NA,NA
"4214","banner","glide",35,2,1,1.576,22,0.55,0,1,0,0.718,"",NA,NA,NA
"4214","grip","beach",36,2,76,9.536,10,0.25,0,1,0,1.151,"",NA,NA,NA
"4214","need","faucet",37,2,1,3.207,7,0.175,1,0,0,0.822,"skip",0,NA,2.199
"4214","want","ascent",38,2,1,1.966,14,0.35,0,1,0,1.109,"",NA,NA,NA
"4214","port","cinema",39,2,1,2.334,18,0.45,0,1,0,0.727,"",NA,NA,NA
"4214","knock","otter",40,2,1,1.526,12,0.3,1,0,0,0.735,"skip",0,NA,1.235
"4214","grip","beach",1,3,76,9.536,10,0.25,0,1,0,1.151,"",NA,NA,NA
"4214","anger","decay",2,3,100,4.167,28,0.7,0,0,1,1.022,"",NA,NA,NA
"4214","plant","worm",3,3,100,10.286,19,0.475,0,1,0,1.238,"",NA,NA,NA
"4214","bleach","ruin",4,3,1,2.983,33,0.825,1,1,1,0.614,"skip",0,NA,3.029
"4214","fan","feature",5,3,1,1.807,5,0.125,1,0,0,0.894,"skip",0,NA,1.303
"4214","mill","feast",6,3,1,1.654,9,0.225,0,0,1,0.903,"",NA,NA,NA
"4214","pea","bathtub",7,3,1,1.903,11,0.275,1,0,0,0.871,"skip",0,NA,2.918
"4214","caring","skirt",8,3,1,2.557,27,0.675,1,1,1,0.963,"skip",0,NA,1.446
"4214","collect","loyalty",9,3,1,1.47,38,0.95,0,0,1,0.71,"",NA,NA,NA
"4214","nerve","bumper",10,3,1,1.99,21,0.525,0,1,0,0.718,"",NA,NA,NA
"4214","climax","saucer",11,3,1,1.846,37,0.925,1,1,1,0.91,"skip",0,NA,1.551
"4214","risk","zero",12,3,1,1.742,39,0.975,1,1,1,0.68,"zero",1,NA,2.871
"4214","calf","annoy",13,3,100,2.359,26,0.65,0,0,1,0.702,"",NA,NA,NA
"4214","prison","loaf",14,3,100,3.366,20,0.5,0,0,1,0.558,"",NA,NA,NA
"4214","forest","knob",15,3,1,5.638,32,0.8,1,1,1,0.934,"skip",0,NA,1.578
"4214","knock","otter",16,3,1,1.526,12,0.3,1,0,0,0.735,"skip",0,NA,1.135
"4214","chicken","beet",17,3,1,38.453,1,0.025,1,0,0,18.197,"beet",1,NA,2.191
"4214","need","faucet",18,3,1,3.207,7,0.175,1,0,0,0.822,"skip",0,NA,1.655
"4214","banner","glide",19,3,1,1.576,22,0.55,0,1,0,0.718,"",NA,NA,NA
"4214","glue","force",20,3,1,1.374,13,0.325,1,0,0,0.886,"skip",0,NA,1.756
"4214","bias","sirloin",21,3,1,2.006,36,0.9,0,0,1,1.015,"",NA,NA,NA
"4214","find","clown",22,3,1,2.126,34,0.85,1,1,1,0.806,"skip",0,NA,1.422
"4214","link","crisis",23,3,1,12.254,16,0.4,0,1,0,1.087,"",NA,NA,NA
"4214","remind","foam",24,3,1,2.166,29,0.725,1,1,1,0.783,"skip",0,NA,1.173
"4214","bacon","feud",25,3,1,1.79,40,1,0,0,1,0.703,"",NA,NA,NA
"4214","smother","surgery",26,3,100,3.646,24,0.6,0,1,0,0.807,"",NA,NA,NA
"4214","visit","glove",27,3,1,1.526,23,0.575,0,0,1,0.718,"",NA,NA,NA
"4214","biology","temper",28,3,1,1.638,30,0.75,1,1,1,0.631,"temper",1,NA,27.471
"4214","capital","figure",29,3,1,4.895,3,0.075,1,0,0,0.862,"figure",1,NA,4.054
"4214","port","cinema",30,3,1,2.334,18,0.45,0,1,0,0.727,"",NA,NA,NA
"4214","copy","bedroom",31,3,1,1.926,8,0.2,1,0,0,0.951,"skip",0,NA,1.374
"4214","want","ascent",32,3,1,1.966,14,0.35,0,1,0,1.109,"",NA,NA,NA
"4214","pork","emperor",33,3,100,2.502,31,0.775,0,0,1,0.67,"",NA,NA,NA
"4214","process","joker",34,3,1,1.774,25,0.625,0,1,0,0.822,"",NA,NA,NA
"4214","rock","milk",35,3,1,1.55,35,0.875,1,1,1,1.255,"skip",0,NA,1.408
"4214","bullet","walkway",36,3,1,1.382,17,0.425,0,0,1,0.943,"",NA,NA,NA
"4214","fee","chowder",37,3,1,4.693,2,0.05,1,1,1,6.167,"skip",0,NA,3.445
"4214","shrink","mafia",38,3,1,1.782,6,0.15,1,0,0,6.791,"skip",0,NA,2.231
"4214","replace","roach",39,3,1,1.279,15,0.375,0,1,0,0.71,"",NA,NA,NA
"4214","date","laugh",40,3,1,3.135,4,0.1,1,0,0,0.974,"skip",0,NA,3.525
"5195","biology","temper",1,1,88,2.591,11,0.275,1,1,1,1.847,"Temper",0,NA,9.682
"5195","need","faucet",2,1,63,9.743,17,0.425,1,0,0,5.381,"faucet",1,NA,15.535
"5195","visit","glove",3,1,74,5.111,20,0.5,1,1,1,0.927,"glove",1,NA,6.357
"5195","forest","knob",4,1,79,1.67,12,0.3,1,0,0,0.503,"knob",1,NA,7.588
"5195","glue","force",5,1,68,6.176,15,0.375,0,0,1,0.583,"",NA,NA,NA
"5195","bleach","ruin",6,1,77,1.951,19,0.475,1,0,0,0.678,"ruin",1,NA,13.174
"5195","want","ascent",7,1,73,4.911,37,0.925,1,0,0,5.334,"accent",0,NA,8.581
"5195","pork","emperor",8,1,75,2.055,14,0.35,1,0,0,0.6,"emperor",1,NA,17.875
"5195","bullet","walkway",9,1,69,4.912,23,0.575,0,0,1,0.59,"",NA,NA,NA
"5195","caring","skirt",10,1,79,3.143,29,0.725,1,1,1,0.686,"skirt",1,NA,14.199
"5195","nerve","bumper",11,1,21,3.479,1,0.025,0,1,0,0.581,"",NA,NA,NA
"5195","shrink","mafia",12,1,75,2.423,2,0.05,1,0,0,0.991,"mafia",1,NA,12.676
"5195","date","laugh",13,1,41,10.679,36,0.9,0,1,0,0.839,"",NA,NA,NA
"5195","calf","annoy",14,1,82,6.975,26,0.65,1,1,1,3.607,"figure",0,NA,7.928
"5195","port","cinema",15,1,29,2.983,25,0.625,0,1,0,0.743,"",NA,NA,NA
"5195","bias","sirloin",16,1,65,7.543,8,0.2,0,0,1,0.711,"",NA,NA,NA
"5195","prison","loaf",17,1,73,13.087,16,0.4,0,0,1,0.871,"",NA,NA,NA
"5195","collect","loyalty",18,1,48,9.192,33,0.825,1,0,0,0.759,"annoy",0,NA,16.518
"5195","replace","roach",19,1,32,3.135,35,0.875,0,1,0,0.743,"",NA,NA,NA
"5195","copy","bedroom",20,1,68,1.774,3,0.075,1,0,0,0.687,"bedroom",1,NA,10.467
"5195","grip","beach",21,1,73,5.311,27,0.675,0,0,1,0.783,"",NA,NA,NA
"5195","mill","feast",22,1,69,1.942,30,0.75,0,0,1,1.255,"",NA,NA,NA
"5195","climax","saucer",23,1,23,2.549,10,0.25,0,1,0,0.655,"",NA,NA,NA
"5195","fee","chowder",24,1,37,7.607,38,0.95,0,1,0,0.607,"",NA,NA,NA
"5195","rock","milk",25,1,83,9.054,13,0.325,1,1,1,5.215,"mill",0,NA,11.617
"5195","find","clown",26,1,42,8.751,28,0.7,0,1,0,0.862,"",NA,NA,NA
"5195","smother","surgery",27,1,22,9.448,22,0.55,0,1,0,0.623,"",NA,NA,NA
"5195","pea","bathtub",28,1,13,2.223,21,0.525,0,1,0,0.695,"",NA,NA,NA
"5195","process","joker",29,1,68,5.366,9,0.225,0,0,1,0.991,"",NA,NA,NA
"5195","link","crisis",30,1,74,6.231,18,0.45,0,0,1,0.766,"",NA,NA,NA
"5195","knock","otter",31,1,87,2.536,32,0.8,1,1,1,1.568,"otter",1,NA,7.185
"5195","chicken","beet",32,1,83,2.118,34,0.85,1,1,1,1.087,"worm",0,NA,18.939
"5195","remind","foam",33,1,64,5.703,40,1,0,0,1,0.655,"",NA,NA,NA
"5195","banner","glide",34,1,74,4.383,4,0.1,1,1,1,0.703,"glide",1,NA,17.052
"5195","bacon","feud",35,1,89,2.696,24,0.6,1,1,1,0.623," feud",0,NA,6.347
"5195","anger","decay",36,1,81,8.719,7,0.175,1,1,1,2.928,"biology",0,NA,9.921
"5195","fan","feature",37,1,27,8.367,5,0.125,0,1,0,1.008,"",NA,NA,NA
"5195","plant","worm",38,1,42,9.383,39,0.975,1,0,0,0.743,"worm",1,NA,9.78
"5195","capital","figure",39,1,70,2.71,31,0.775,0,0,1,0.632,"",NA,NA,NA
"5195","risk","zero",40,1,80,1.671,6,0.15,1,0,0,0.703,"zero",1,NA,12.63
"5195","smother","surgery",1,2,22,9.448,22,0.55,0,1,0,0.623,"",NA,NA,NA
"5195","find","clown",2,2,42,8.751,28,0.7,0,1,0,0.862,"",NA,NA,NA
"5195","visit","glove",3,2,74,5.111,20,0.5,1,1,1,0.927,"glove",1,NA,18.934
"5195","glue","force",4,2,68,6.176,15,0.375,0,0,1,0.583,"",NA,NA,NA
"5195","want","ascent",5,2,73,4.911,37,0.925,1,0,0,5.334,"accent",0,NA,9.154
"5195","process","joker",6,2,68,5.366,9,0.225,0,0,1,0.991,"",NA,NA,NA
"5195","bullet","walkway",7,2,69,4.912,23,0.575,0,0,1,0.59,"",NA,NA,NA
"5195","risk","zero",8,2,80,1.671,6,0.15,1,0,0,0.703,"zero",1,NA,7.594
"5195","capital","figure",9,2,70,2.71,31,0.775,0,0,1,0.632,"",NA,NA,NA
"5195","climax","saucer",10,2,23,2.549,10,0.25,0,1,0,0.655,"",NA,NA,NA
"5195","biology","temper",11,2,88,2.591,11,0.275,1,1,1,1.847,"temper",1,NA,4.214
"5195","need","faucet",12,2,63,9.743,17,0.425,1,0,0,5.381,"faucet",1,NA,15.392
"5195","anger","decay",13,2,81,8.719,7,0.175,1,1,1,2.928,"sirloin",0,NA,25.859
"5195","forest","knob",14,2,79,1.67,12,0.3,1,0,0,0.503,"knob",1,NA,7.329
"5195","fan","feature",15,2,27,8.367,5,0.125,0,1,0,1.008,"",NA,NA,NA
"5195","banner","glide",16,2,74,4.383,4,0.1,1,1,1,0.703,"saucer",0,NA,27.424
"5195","plant","worm",17,2,42,9.383,39,0.975,1,0,0,0.743,"worm",1,NA,4.449
"5195","calf","annoy",18,2,82,6.975,26,0.65,1,1,1,3.607,"annoy",1,NA,8.29
"5195","bias","sirloin",19,2,65,7.543,8,0.2,0,0,1,0.711,"",NA,NA,NA
"5195","nerve","bumper",20,2,21,3.479,1,0.025,0,1,0,0.581,"",NA,NA,NA
"5195","date","laugh",21,2,41,10.679,36,0.9,0,1,0,0.839,"",NA,NA,NA
"5195","replace","roach",22,2,32,3.135,35,0.875,0,1,0,0.743,"",NA,NA,NA
"5195","remind","foam",23,2,64,5.703,40,1,0,0,1,0.655,"",NA,NA,NA
"5195","caring","skirt",24,2,79,3.143,29,0.725,1,1,1,0.686,"skirt",1,NA,12.376
"5195","rock","milk",25,2,83,9.054,13,0.325,1,1,1,5.215,"mill",0,NA,4.502
"5195","mill","feast",26,2,69,1.942,30,0.75,0,0,1,1.255,"",NA,NA,NA
"5195","grip","beach",27,2,73,5.311,27,0.675,0,0,1,0.783,"",NA,NA,NA
"5195","port","cinema",28,2,29,2.983,25,0.625,0,1,0,0.743,"",NA,NA,NA
"5195","pork","emperor",29,2,75,2.055,14,0.35,1,0,0,0.6,"emperor",1,NA,18.804
"5195","fee","chowder",30,2,37,7.607,38,0.95,0,1,0,0.607,"",NA,NA,NA
"5195","shrink","mafia",31,2,75,2.423,2,0.05,1,0,0,0.991,"mafia",1,NA,3.197
"5195","copy","bedroom",32,2,68,1.774,3,0.075,1,0,0,0.687,"bedroom",1,NA,7.289
"5195","bleach","ruin",33,2,77,1.951,19,0.475,1,0,0,0.678,"ruin",1,NA,2.783
"5195","link","crisis",34,2,74,6.231,18,0.45,0,0,1,0.766,"",NA,NA,NA
"5195","collect","loyalty",35,2,48,9.192,33,0.825,1,0,0,0.759,"force",0,NA,32.006
"5195","prison","loaf",36,2,73,13.087,16,0.4,0,0,1,0.871,"",NA,NA,NA
"5195","chicken","beet",37,2,83,2.118,34,0.85,1,1,1,1.087,"annoy",0,NA,25.625
"5195","pea","bathtub",38,2,13,2.223,21,0.525,0,1,0,0.695,"",NA,NA,NA
"5195","bacon","feud",39,2,89,2.696,24,0.6,1,1,1,0.623,"feud",1,NA,25.345
"5195","knock","otter",40,2,87,2.536,32,0.8,1,1,1,1.568,"otter",1,NA,8.086
"5195","date","laugh",1,3,41,10.679,36,0.9,0,1,0,0.839,"",NA,NA,NA
"5195","replace","roach",2,3,32,3.135,35,0.875,0,1,0,0.743,"",NA,NA,NA
"5195","shrink","mafia",3,3,75,2.423,2,0.05,1,0,0,0.991,"mafia",1,NA,4.499
"5195","bias","sirloin",4,3,65,7.543,8,0.2,0,0,1,0.711,"",NA,NA,NA
"5195","climax","saucer",5,3,23,2.549,10,0.25,0,1,0,0.655,"",NA,NA,NA
"5195","pork","emperor",6,3,75,2.055,14,0.35,1,0,0,0.6,"emperor",1,NA,20.633
"5195","copy","bedroom",7,3,68,1.774,3,0.075,1,0,0,0.687,"bedroom",1,NA,4.545
"5195","banner","glide",8,3,74,4.383,4,0.1,1,1,1,0.703,"cinema",0,NA,24.618
"5195","caring","skirt",9,3,79,3.143,29,0.725,1,1,1,0.686,"skirt",1,NA,13.082
"5195","chicken","beet",10,3,83,2.118,34,0.85,1,1,1,1.087,"annoy",0,NA,8.379
"5195","remind","foam",11,3,64,5.703,40,1,0,0,1,0.655,"",NA,NA,NA
"5195","nerve","bumper",12,3,21,3.479,1,0.025,0,1,0,0.581,"",NA,NA,NA
"5195","biology","temper",13,3,88,2.591,11,0.275,1,1,1,1.847,"temper",1,NA,574.903
"5195","risk","zero",14,3,80,1.671,6,0.15,1,0,0,0.703,"zero",1,NA,6.036
"5195","plant","worm",15,3,42,9.383,39,0.975,1,0,0,0.743,"worm",1,NA,4.63
"5195","anger","decay",16,3,81,8.719,7,0.175,1,1,1,2.928,"crisis",0,NA,9.36
"5195","calf","annoy",17,3,82,6.975,26,0.65,1,1,1,3.607,"annoy",1,NA,7.381
"5195","prison","loaf",18,3,73,13.087,16,0.4,0,0,1,0.871,"",NA,NA,NA
"5195","bacon","feud",19,3,89,2.696,24,0.6,1,1,1,0.623,"feud",1,NA,6.818
"5195","port","cinema",20,3,29,2.983,25,0.625,0,1,0,0.743,"",NA,NA,NA
"5195","rock","milk",21,3,83,9.054,13,0.325,1,1,1,5.215,"mill",0,NA,4.191
"5195","visit","glove",22,3,74,5.111,20,0.5,1,1,1,0.927,"glove",1,NA,9.012
"5195","bullet","walkway",23,3,69,4.912,23,0.575,0,0,1,0.59,"",NA,NA,NA
"5195","want","ascent",24,3,73,4.911,37,0.925,1,0,0,5.334,"force",0,NA,14.587
"5195","fan","feature",25,3,27,8.367,5,0.125,0,1,0,1.008,"",NA,NA,NA
"5195","fee","chowder",26,3,37,7.607,38,0.95,0,1,0,0.607,"",NA,NA,NA
"5195","need","faucet",27,3,63,9.743,17,0.425,1,0,0,5.381,"faucet",1,NA,16.719
"5195","glue","force",28,3,68,6.176,15,0.375,0,0,1,0.583,"",NA,NA,NA
"5195","grip","beach",29,3,73,5.311,27,0.675,0,0,1,0.783,"",NA,NA,NA
"5195","mill","feast",30,3,69,1.942,30,0.75,0,0,1,1.255,"",NA,NA,NA
"5195","link","crisis",31,3,74,6.231,18,0.45,0,0,1,0.766,"",NA,NA,NA
"5195","bleach","ruin",32,3,77,1.951,19,0.475,1,0,0,0.678,"ruin",1,NA,6.555
"5195","knock","otter",33,3,87,2.536,32,0.8,1,1,1,1.568,"otter",1,NA,14.76
"5195","find","clown",34,3,42,8.751,28,0.7,0,1,0,0.862,"",NA,NA,NA
"5195","smother","surgery",35,3,22,9.448,22,0.55,0,1,0,0.623,"",NA,NA,NA
"5195","pea","bathtub",36,3,13,2.223,21,0.525,0,1,0,0.695,"",NA,NA,NA
"5195","collect","loyalty",37,3,48,9.192,33,0.825,1,0,0,0.759,"laugh",0,NA,11.244
"5195","forest","knob",38,3,79,1.67,12,0.3,1,0,0,0.503,"knob",1,NA,12.558
"5195","capital","figure",39,3,70,2.71,31,0.775,0,0,1,0.632,"",NA,NA,NA
"5195","process","joker",40,3,68,5.366,9,0.225,0,0,1,0.991,"",NA,NA,NA
"5550","replace","roach",1,1,10,6.287,4,0.1,1,1,1,1.271,"skip",0,NA,4.482
"5550","mill","feast",2,1,70,6.449,16,0.4,1,1,1,5.246,"feast",1,NA,3.679
"5550","grip","beach",3,1,9,8.767,8,0.2,1,0,0,0.567,"skip",0,NA,3.343
"5550","date","laugh",4,1,80,11.735,23,0.575,1,1,1,1.599,"laugh",1,NA,2.711
"5550","find","clown",5,1,10,6.518,24,0.6,1,0,0,1.047,"skip",0,NA,3.031
"5550","remind","foam",6,1,9,3.559,17,0.425,1,0,0,0.687,"skip",0,NA,2.751
"5550","collect","loyalty",7,1,9,4.135,18,0.45,1,0,0,0.695,"skip",0,NA,2.791
"5550","glue","force",8,1,80,6.551,33,0.825,1,1,1,1.375,"force",1,NA,2.375
"5550","nerve","bumper",9,1,80,4.67,6,0.15,1,1,1,1.255,"bumper",1,NA,4.487
"5550","bleach","ruin",10,1,84,6.919,31,0.775,0,0,1,1.047,"",NA,NA,NA
"5550","prison","loaf",11,1,89,5.559,27,0.675,0,0,1,1.191,"",NA,NA,NA
"5550","plant","worm",12,1,90,4.774,14,0.35,0,0,1,1.287,"",NA,NA,NA
"5550","capital","figure",13,1,10,5.767,22,0.55,0,1,0,0.655,"",NA,NA,NA
"5550","fan","feature",14,1,80,7.839,25,0.625,0,0,1,5.927,"",NA,NA,NA
"5550","want","ascent",15,1,19,8.407,12,0.3,0,1,0,0.623,"",NA,NA,NA
"5550","calf","annoy",16,1,70,5.783,38,0.95,1,1,1,0.711,"annoyed",0,NA,6.976
"5550","shrink","mafia",17,1,10,4.287,7,0.175,0,1,0,0.639,"",NA,NA,NA
"5550","forest","knob",18,1,85,6.151,28,0.7,0,0,1,1.239,"",NA,NA,NA
"5550","knock","otter",19,1,10,5.143,36,0.9,1,0,0,0.831,"skip",0,NA,4.602
"5550","smother","surgery",20,1,30,5.159,29,0.725,0,1,0,1.862,"",NA,NA,NA
"5550","pea","bathtub",21,1,20,8.143,15,0.375,1,1,1,0.831,"pool",0,NA,7.998
"5550","chicken","beet",22,1,90,5.782,35,0.875,0,0,1,0.727,"",NA,NA,NA
"5550","bullet","walkway",23,1,85,4.535,13,0.325,0,0,1,0.935,"",NA,NA,NA
"5550","copy","bedroom",24,1,9,4.248,37,0.925,1,0,0,0.702,"bedroom",1,NA,3.813
"5550","process","joker",25,1,10,4.223,11,0.275,1,0,0,1.047,"skip",0,NA,3.439
"5550","need","faucet",26,1,9,5.111,39,0.975,1,0,0,0.823,"skip",0,NA,5.655
"5550","anger","decay",27,1,15,6.67,21,0.525,0,1,0,1.391,"",NA,NA,NA
"5550","biology","temper",28,1,75,7.575,2,0.05,1,1,1,1.191,"temper",1,NA,5.486
"5550","fee","chowder",29,1,85,4.758,32,0.8,0,0,1,1.104,"",NA,NA,NA
"5550","climax","saucer",30,1,9,5.927,1,0.025,1,0,0,0.647,"skip",0,NA,7.094
"5550","rock","milk",31,1,80,4.527,9,0.225,1,1,1,1.103,"milk",1,NA,5.127
"5550","bacon","feud",32,1,79,6.431,20,0.5,1,1,1,0.671,"feud",1,NA,2.991
"5550","pork","emperor",33,1,90,2.727,10,0.25,0,0,1,0.719,"",NA,NA,NA
"5550","banner","glide",34,1,14,9.91,3,0.075,0,1,0,0.647,"",NA,NA,NA
"5550","caring","skirt",35,1,11,6.925,5,0.125,0,1,0,0.695,"",NA,NA,NA
"5550","link","crisis",36,1,10,3.518,19,0.475,0,1,0,0.656,"",NA,NA,NA
"5550","bias","sirloin",37,1,10,3.711,26,0.65,0,1,0,0.727,"",NA,NA,NA
"5550","visit","glove",38,1,10,5.599,40,1,0,1,0,0.831,"",NA,NA,NA
"5550","port","cinema",39,1,10,5.599,34,0.85,1,0,0,0.96,"skip",0,NA,3.662
"5550","risk","zero",40,1,90,8.463,30,0.75,0,0,1,7.231,"",NA,NA,NA
"5550","chicken","beet",1,2,90,5.782,35,0.875,0,0,1,0.727,"",NA,NA,NA
"5550","biology","temper",2,2,75,7.575,2,0.05,1,1,1,1.191,"temper",1,NA,4.154
"5550","bacon","feud",3,2,79,6.431,20,0.5,1,1,1,0.671,"feud",1,NA,2.591
"5550","collect","loyalty",4,2,9,4.135,18,0.45,1,0,0,0.695,"skip",0,NA,3.415
"5550","bias","sirloin",5,2,10,3.711,26,0.65,0,1,0,0.727,"",NA,NA,NA
"5550","need","faucet",6,2,9,5.111,39,0.975,1,0,0,0.823,"skip",0,NA,3.318
"5550","glue","force",7,2,80,6.551,33,0.825,1,1,1,1.375,"force",1,NA,2.935
"5550","nerve","bumper",8,2,80,4.67,6,0.15,1,1,1,1.255,"bumper",1,NA,4.591
"5550","fee","chowder",9,2,85,4.758,32,0.8,0,0,1,1.104,"",NA,NA,NA
"5550","remind","foam",10,2,9,3.559,17,0.425,1,0,0,0.687,"skip",0,NA,3.246
"5550","rock","milk",11,2,80,4.527,9,0.225,1,1,1,1.103,"milk",1,NA,2.783
"5550","grip","beach",12,2,9,8.767,8,0.2,1,0,0,0.567,"skip",0,NA,3.631
"5550","bleach","ruin",13,2,84,6.919,31,0.775,0,0,1,1.047,"",NA,NA,NA
"5550","link","crisis",14,2,10,3.518,19,0.475,0,1,0,0.656,"",NA,NA,NA
"5550","process","joker",15,2,10,4.223,11,0.275,1,0,0,1.047,"skip",0,NA,5.692
"5550","risk","zero",16,2,90,8.463,30,0.75,0,0,1,7.231,"",NA,NA,NA
"5550","smother","surgery",17,2,30,5.159,29,0.725,0,1,0,1.862,"",NA,NA,NA
"5550","capital","figure",18,2,10,5.767,22,0.55,0,1,0,0.655,"",NA,NA,NA
"5550","fan","feature",19,2,80,7.839,25,0.625,0,0,1,5.927,"",NA,NA,NA
"5550","prison","loaf",20,2,89,5.559,27,0.675,0,0,1,1.191,"",NA,NA,NA
"5550","visit","glove",21,2,10,5.599,40,1,0,1,0,0.831,"",NA,NA,NA
"5550","pork","emperor",22,2,90,2.727,10,0.25,0,0,1,0.719,"",NA,NA,NA
"5550","climax","saucer",23,2,9,5.927,1,0.025,1,0,0,0.647,"skip",0,NA,3.639
"5550","want","ascent",24,2,19,8.407,12,0.3,0,1,0,0.623,"",NA,NA,NA
"5550","shrink","mafia",25,2,10,4.287,7,0.175,0,1,0,0.639,"",NA,NA,NA
"5550","bullet","walkway",26,2,85,4.535,13,0.325,0,0,1,0.935,"",NA,NA,NA
"5550","date","laugh",27,2,80,11.735,23,0.575,1,1,1,1.599,"laugh",1,NA,3.441
"5550","port","cinema",28,2,10,5.599,34,0.85,1,0,0,0.96,"skip",0,NA,3.511
"5550","mill","feast",29,2,70,6.449,16,0.4,1,1,1,5.246,"feast",1,NA,2.536
"5550","banner","glide",30,2,14,9.91,3,0.075,0,1,0,0.647,"",NA,NA,NA
"5550","calf","annoy",31,2,70,5.783,38,0.95,1,1,1,0.711,"annoy",1,NA,4.278
"5550","pea","bathtub",32,2,20,8.143,15,0.375,1,1,1,0.831,"skip",0,NA,3.255
"5550","forest","knob",33,2,85,6.151,28,0.7,0,0,1,1.239,"",NA,NA,NA
"5550","copy","bedroom",34,2,9,4.248,37,0.925,1,0,0,0.702,"bedroom",1,NA,4.342
"5550","knock","otter",35,2,10,5.143,36,0.9,1,0,0,0.831,"skip",0,NA,4.239
"5550","replace","roach",36,2,10,6.287,4,0.1,1,1,1,1.271,"skip",0,NA,4.127
"5550","plant","worm",37,2,90,4.774,14,0.35,0,0,1,1.287,"",NA,NA,NA
"5550","caring","skirt",38,2,11,6.925,5,0.125,0,1,0,0.695,"",NA,NA,NA
"5550","find","clown",39,2,10,6.518,24,0.6,1,0,0,1.047,"skip",0,NA,8.516
"5550","anger","decay",40,2,15,6.67,21,0.525,0,1,0,1.391,"",NA,NA,NA
"5550","smother","surgery",1,3,30,5.159,29,0.725,0,1,0,1.862,"",NA,NA,NA
"5550","banner","glide",2,3,14,9.91,3,0.075,0,1,0,0.647,"",NA,NA,NA
"5550","caring","skirt",3,3,11,6.925,5,0.125,0,1,0,0.695,"",NA,NA,NA
"5550","shrink","mafia",4,3,10,4.287,7,0.175,0,1,0,0.639,"",NA,NA,NA
"5550","pork","emperor",5,3,90,2.727,10,0.25,0,0,1,0.719,"",NA,NA,NA
"5550","rock","milk",6,3,80,4.527,9,0.225,1,1,1,1.103,"milk",1,NA,4.501
"5550","want","ascent",7,3,19,8.407,12,0.3,0,1,0,0.623,"",NA,NA,NA
"5550","link","crisis",8,3,10,3.518,19,0.475,0,1,0,0.656,"",NA,NA,NA
"5550","fan","feature",9,3,80,7.839,25,0.625,0,0,1,5.927,"",NA,NA,NA
"5550","pea","bathtub",10,3,20,8.143,15,0.375,1,1,1,0.831,"skip",0,NA,3.916
"5550","find","clown",11,3,10,6.518,24,0.6,1,0,0,1.047,"skip",0,NA,3.472
"5550","grip","beach",12,3,9,8.767,8,0.2,1,0,0,0.567,"skip",0,NA,3.231
"5550","anger","decay",13,3,15,6.67,21,0.525,0,1,0,1.391,"",NA,NA,NA
"5550","bacon","feud",14,3,79,6.431,20,0.5,1,1,1,0.671,"feud",1,NA,3.231
"5550","risk","zero",15,3,90,8.463,30,0.75,0,0,1,7.231,"",NA,NA,NA
"5550","mill","feast",16,3,70,6.449,16,0.4,1,1,1,5.246,"feast",1,NA,3.67
"5550","bullet","walkway",17,3,85,4.535,13,0.325,0,0,1,0.935,"",NA,NA,NA
"5550","prison","loaf",18,3,89,5.559,27,0.675,0,0,1,1.191,"",NA,NA,NA
"5550","process","joker",19,3,10,4.223,11,0.275,1,0,0,1.047,"skip",0,NA,3.596
"5550","glue","force",20,3,80,6.551,33,0.825,1,1,1,1.375,"force",1,NA,2.863
"5550","remind","foam",21,3,9,3.559,17,0.425,1,0,0,0.687,"skip",0,NA,2.888
"5550","climax","saucer",22,3,9,5.927,1,0.025,1,0,0,0.647,"skip",0,NA,2.784
"5550","forest","knob",23,3,85,6.151,28,0.7,0,0,1,1.239,"",NA,NA,NA
"5550","biology","temper",24,3,75,7.575,2,0.05,1,1,1,1.191,"temper",1,NA,3.501
"5550","need","faucet",25,3,9,5.111,39,0.975,1,0,0,0.823,"skip",0,NA,3.32
"5550","copy","bedroom",26,3,9,4.248,37,0.925,1,0,0,0.702,"bedroom",1,NA,3.32
"5550","capital","figure",27,3,10,5.767,22,0.55,0,1,0,0.655,"",NA,NA,NA
"5550","visit","glove",28,3,10,5.599,40,1,0,1,0,0.831,"",NA,NA,NA
"5550","fee","chowder",29,3,85,4.758,32,0.8,0,0,1,1.104,"",NA,NA,NA
"5550","bleach","ruin",30,3,84,6.919,31,0.775,0,0,1,1.047,"",NA,NA,NA
"5550","date","laugh",31,3,80,11.735,23,0.575,1,1,1,1.599,"laugh",1,NA,4.075
"5550","nerve","bumper",32,3,80,4.67,6,0.15,1,1,1,1.255,"bumper",1,NA,3.064
"5550","plant","worm",33,3,90,4.774,14,0.35,0,0,1,1.287,"",NA,NA,NA
"5550","port","cinema",34,3,10,5.599,34,0.85,1,0,0,0.96,"skip",0,NA,2.935
"5550","bias","sirloin",35,3,10,3.711,26,0.65,0,1,0,0.727,"",NA,NA,NA
"5550","replace","roach",36,3,10,6.287,4,0.1,1,1,1,1.271,"skip",0,NA,2.975
"5550","calf","annoy",37,3,70,5.783,38,0.95,1,1,1,0.711,"annoy",1,NA,3.136
"5550","chicken","beet",38,3,90,5.782,35,0.875,0,0,1,0.727,"",NA,NA,NA
"5550","collect","loyalty",39,3,9,4.135,18,0.45,1,0,0,0.695,"skip",0,NA,3.822
"5550","knock","otter",40,3,10,5.143,36,0.9,1,0,0,0.831,"skip",0,NA,2.853
"5753","fee","chowder",1,1,54,2.751,13,0.325,0,0,1,0.847,"",NA,NA,NA
"5753","need","faucet",2,1,37,2.625,15,0.375,0,0,1,0.748,"",NA,NA,NA
"5753","grip","beach",3,1,39,1.546,36,0.9,0,1,0,0.874,"",NA,NA,NA
"5753","link","crisis",4,1,61,2.053,8,0.2,1,0,0,1.318,"crisis",1,NA,15.304
"5753","rock","milk",5,1,61,1.9,32,0.8,1,0,0,0.608,"salt",0,NA,17.949
"5753","risk","zero",6,1,65,1.584,18,0.45,1,0,0,1.294,"zero",1,NA,8.854
"5753","caring","skirt",7,1,51,1.609,20,0.5,0,1,0,0.671,"",NA,NA,NA
"5753","plant","worm",8,1,60,2.486,2,0.05,1,0,0,2.802,"worm",1,NA,18.551
"5753","prison","loaf",9,1,55,2.194,25,0.625,0,1,0,0.799,"",NA,NA,NA
"5753","banner","glide",10,1,54,3.17,10,0.25,0,1,0,1.267,"",NA,NA,NA
"5753","visit","glove",11,1,36,2.143,26,0.65,0,0,1,0.835,"",NA,NA,NA
"5753","process","joker",12,1,63,2.789,1,0.025,1,1,1,0.886,"joker",1,NA,14.491
"5753","forest","knob",13,1,58,3.563,35,0.875,1,0,0,3.411,"fee",0,NA,19.319
"5753","knock","otter",14,1,45,2.268,38,0.95,0,0,1,0.858,"",NA,NA,NA
"5753","mill","feast",15,1,42,2.231,34,0.85,0,0,1,0.861,"",NA,NA,NA
"5753","biology","temper",16,1,48,2.308,17,0.425,0,1,0,0.986,"",NA,NA,NA
"5753","bleach","ruin",17,1,67,2.32,33,0.825,1,1,1,0.86,"remind",0,NA,21.271
"5753","pea","bathtub",18,1,57,1.279,39,0.975,1,0,0,1.026,"bathtub",1,NA,11.048
"5753","fan","feature",19,1,39,2.269,21,0.525,0,1,0,0.634,"",NA,NA,NA
"5753","glue","force",20,1,67,2.205,22,0.55,1,1,1,0.747,"force",1,NA,22.936
"5753","smother","surgery",21,1,66,2.319,4,0.1,1,0,0,0.989,"surgery",1,NA,12.164
"5753","find","clown",22,1,42,2.598,27,0.675,0,0,1,0.759,"",NA,NA,NA
"5753","want","ascent",23,1,60,1.583,29,0.725,1,0,0,0.582,"beet",0,NA,18.676
"5753","chicken","beet",24,1,80,3.398,5,0.125,1,1,1,1.064,"beet",1,NA,13.749
"5753","nerve","bumper",25,1,60,1.8,9,0.225,1,0,0,0.645,"need",0,NA,19.928
"5753","capital","figure",26,1,40,20.843,6,0.15,0,0,1,12.932,"",NA,NA,NA
"5753","collect","loyalty",27,1,57,1.964,3,0.075,1,0,0,0.783,"loyalty ",0,NA,14.024
"5753","bias","sirloin",28,1,55,2.701,19,0.475,0,0,1,0.696,"",NA,NA,NA
"5753","bullet","walkway",29,1,65,2.192,28,0.7,1,1,1,0.796,"walkway",1,NA,12.107
"5753","date","laugh",30,1,42,3.082,37,0.925,0,1,0,0.772,"",NA,NA,NA
"5753","bacon","feud",31,1,67,4.119,31,0.775,1,1,1,1.761,"feud",1,NA,18.005
"5753","pork","emperor",32,1,56,9.295,24,0.6,1,1,1,0.734,"emperor",1,NA,9.299
"5753","remind","foam",33,1,35,5.02,30,0.75,0,0,1,1.089,"",NA,NA,NA
"5753","port","cinema",34,1,54,2.344,12,0.3,0,0,1,0.594,"",NA,NA,NA
"5753","copy","bedroom",35,1,43,2.168,23,0.575,0,1,0,2.929,"",NA,NA,NA
"5753","shrink","mafia",36,1,54,1.419,7,0.175,0,1,0,0.798,"",NA,NA,NA
"5753","replace","roach",37,1,58,8.966,14,0.35,1,1,1,0.632,"repair",0,NA,7.985
"5753","calf","annoy",38,1,62,2.889,16,0.4,1,1,1,0.735,"annoy",1,NA,8.716
"5753","anger","decay",39,1,36,2.206,40,1,0,1,0,1.001,"",NA,NA,NA
"5753","climax","saucer",40,1,56,5.337,11,0.275,1,1,1,2.902,"risk",0,NA,13.338
"5753","collect","loyalty",1,2,57,1.964,3,0.075,1,0,0,0.783,"loyalty",1,NA,22.568
"5753","glue","force",2,2,67,2.205,22,0.55,1,1,1,0.747,"force",1,NA,5.897
"5753","capital","figure",3,2,40,20.843,6,0.15,0,0,1,12.932,"",NA,NA,NA
"5753","caring","skirt",4,2,51,1.609,20,0.5,0,1,0,0.671,"",NA,NA,NA
"5753","bacon","feud",5,2,67,4.119,31,0.775,1,1,1,1.761,"feud",1,NA,3.75
"5753","smother","surgery",6,2,66,2.319,4,0.1,1,0,0,0.989,"surgery",1,NA,4.426
"5753","date","laugh",7,2,42,3.082,37,0.925,0,1,0,0.772,"",NA,NA,NA
"5753","process","joker",8,2,63,2.789,1,0.025,1,1,1,0.886,"joker",1,NA,9.975
"5753","plant","worm",9,2,60,2.486,2,0.05,1,0,0,2.802,"worm",1,NA,5.553
"5753","remind","foam",10,2,35,5.02,30,0.75,0,0,1,1.089,"",NA,NA,NA
"5753","calf","annoy",11,2,62,2.889,16,0.4,1,1,1,0.735,"annoy",1,NA,7.106
"5753","port","cinema",12,2,54,2.344,12,0.3,0,0,1,0.594,"",NA,NA,NA
"5753","risk","zero",13,2,65,1.584,18,0.45,1,0,0,1.294,"zero",1,NA,8.908
"5753","biology","temper",14,2,48,2.308,17,0.425,0,1,0,0.986,"",NA,NA,NA
"5753","anger","decay",15,2,36,2.206,40,1,0,1,0,1.001,"",NA,NA,NA
"5753","chicken","beet",16,2,80,3.398,5,0.125,1,1,1,1.064,"beet",1,NA,5.361
"5753","bleach","ruin",17,2,67,2.32,33,0.825,1,1,1,0.86,"remind",0,NA,13.889
"5753","copy","bedroom",18,2,43,2.168,23,0.575,0,1,0,2.929,"",NA,NA,NA
"5753","fee","chowder",19,2,54,2.751,13,0.325,0,0,1,0.847,"",NA,NA,NA
"5753","knock","otter",20,2,45,2.268,38,0.95,0,0,1,0.858,"",NA,NA,NA
"5753","link","crisis",21,2,61,2.053,8,0.2,1,0,0,1.318,"crisis",1,NA,6.268
"5753","want","ascent",22,2,60,1.583,29,0.725,1,0,0,0.582,"need",0,NA,5.683
"5753","grip","beach",23,2,39,1.546,36,0.9,0,1,0,0.874,"",NA,NA,NA
"5753","rock","milk",24,2,61,1.9,32,0.8,1,0,0,0.608,"loaf",0,NA,10.887
"5753","bias","sirloin",25,2,55,2.701,19,0.475,0,0,1,0.696,"",NA,NA,NA
"5753","prison","loaf",26,2,55,2.194,25,0.625,0,1,0,0.799,"",NA,NA,NA
"5753","need","faucet",27,2,37,2.625,15,0.375,0,0,1,0.748,"",NA,NA,NA
"5753","banner","glide",28,2,54,3.17,10,0.25,0,1,0,1.267,"",NA,NA,NA
"5753","forest","knob",29,2,58,3.563,35,0.875,1,0,0,3.411,"decay",0,NA,5.698
"5753","climax","saucer",30,2,56,5.337,11,0.275,1,1,1,2.902,"theater",0,NA,7.04
"5753","fan","feature",31,2,39,2.269,21,0.525,0,1,0,0.634,"",NA,NA,NA
"5753","visit","glove",32,2,36,2.143,26,0.65,0,0,1,0.835,"",NA,NA,NA
"5753","shrink","mafia",33,2,54,1.419,7,0.175,0,1,0,0.798,"",NA,NA,NA
"5753","find","clown",34,2,42,2.598,27,0.675,0,0,1,0.759,"",NA,NA,NA
"5753","bullet","walkway",35,2,65,2.192,28,0.7,1,1,1,0.796,"force",0,NA,8.063
"5753","replace","roach",36,2,58,8.966,14,0.35,1,1,1,0.632,"glue",0,NA,4.909
"5753","pea","bathtub",37,2,57,1.279,39,0.975,1,0,0,1.026,"bathtub",1,NA,5.416
"5753","nerve","bumper",38,2,60,1.8,9,0.225,1,0,0,0.645,"free",0,NA,5.798
"5753","mill","feast",39,2,42,2.231,34,0.85,0,0,1,0.861,"",NA,NA,NA
"5753","pork","emperor",40,2,56,9.295,24,0.6,1,1,1,0.734,"crisis",0,NA,30.425
"5753","shrink","mafia",1,3,54,1.419,7,0.175,0,1,0,0.798,"",NA,NA,NA
"5753","grip","beach",2,3,39,1.546,36,0.9,0,1,0,0.874,"",NA,NA,NA
"5753","plant","worm",3,3,60,2.486,2,0.05,1,0,0,2.802,"feature",0,NA,16.645
"5753","risk","zero",4,3,65,1.584,18,0.45,1,0,0,1.294,"loyalty",0,NA,4.451
"5753","copy","bedroom",5,3,43,2.168,23,0.575,0,1,0,2.929,"",NA,NA,NA
"5753","process","joker",6,3,63,2.789,1,0.025,1,1,1,0.886,"plant",0,NA,5.255
"5753","replace","roach",7,3,58,8.966,14,0.35,1,1,1,0.632,"repair",0,NA,4.413
"5753","find","clown",8,3,42,2.598,27,0.675,0,0,1,0.759,"",NA,NA,NA
"5753","smother","surgery",9,3,66,2.319,4,0.1,1,0,0,0.989,"surgery",1,NA,5.992
"5753","remind","foam",10,3,35,5.02,30,0.75,0,0,1,1.089,"",NA,NA,NA
"5753","anger","decay",11,3,36,2.206,40,1,0,1,0,1.001,"",NA,NA,NA
"5753","visit","glove",12,3,36,2.143,26,0.65,0,0,1,0.835,"",NA,NA,NA
"5753","glue","force",13,3,67,2.205,22,0.55,1,1,1,0.747,"force",1,NA,5.012
"5753","mill","feast",14,3,42,2.231,34,0.85,0,0,1,0.861,"",NA,NA,NA
"5753","link","crisis",15,3,61,2.053,8,0.2,1,0,0,1.318,"risk",0,NA,10.039
"5753","climax","saucer",16,3,56,5.337,11,0.275,1,1,1,2.902,"change",0,NA,3.132
"5753","capital","figure",17,3,40,20.843,6,0.15,0,0,1,12.932,"",NA,NA,NA
"5753","pea","bathtub",18,3,57,1.279,39,0.975,1,0,0,1.026,"bathtub",1,NA,3.962
"5753","chicken","beet",19,3,80,3.398,5,0.125,1,1,1,1.064,"beet",1,NA,2.981
"5753","collect","loyalty",20,3,57,1.964,3,0.075,1,0,0,0.783,"loyalty",1,NA,5.415
"5753","need","faucet",21,3,37,2.625,15,0.375,0,0,1,0.748,"",NA,NA,NA
"5753","prison","loaf",22,3,55,2.194,25,0.625,0,1,0,0.799,"",NA,NA,NA
"5753","calf","annoy",23,3,62,2.889,16,0.4,1,1,1,0.735,"free",0,NA,3.219
"5753","rock","milk",24,3,61,1.9,32,0.8,1,0,0,0.608,"sold",0,NA,4.642
"5753","bleach","ruin",25,3,67,2.32,33,0.825,1,1,1,0.86,"pork",0,NA,14.12
"5753","bullet","walkway",26,3,65,2.192,28,0.7,1,1,1,0.796,"force",0,NA,4.577
"5753","biology","temper",27,3,48,2.308,17,0.425,0,1,0,0.986,"",NA,NA,NA
"5753","forest","knob",28,3,58,3.563,35,0.875,1,0,0,3.411,"free",0,NA,4.933
"5753","date","laugh",29,3,42,3.082,37,0.925,0,1,0,0.772,"",NA,NA,NA
"5753","port","cinema",30,3,54,2.344,12,0.3,0,0,1,0.594,"",NA,NA,NA
"5753","want","ascent",31,3,60,1.583,29,0.725,1,0,0,0.582,"need",0,NA,3.243
"5753","nerve","bumper",32,3,60,1.8,9,0.225,1,0,0,0.645,"damage",0,NA,3.575
"5753","fee","chowder",33,3,54,2.751,13,0.325,0,0,1,0.847,"",NA,NA,NA
"5753","caring","skirt",34,3,51,1.609,20,0.5,0,1,0,0.671,"",NA,NA,NA
"5753","knock","otter",35,3,45,2.268,38,0.95,0,0,1,0.858,"",NA,NA,NA
"5753","bias","sirloin",36,3,55,2.701,19,0.475,0,0,1,0.696,"",NA,NA,NA
"5753","banner","glide",37,3,54,3.17,10,0.25,0,1,0,1.267,"",NA,NA,NA
"5753","bacon","feud",38,3,67,4.119,31,0.775,1,1,1,1.761,"feud",1,NA,678.41
"5753","fan","feature",39,3,39,2.269,21,0.525,0,1,0,0.634,"",NA,NA,NA
"5753","pork","emperor",40,3,56,9.295,24,0.6,1,1,1,0.734,"emperor ",0,NA,20.214
"6745","prison","loaf",1,1,18,1.808,15,0.375,1,0,0,0.876,"reform",0,NA,7.178
"6745","bacon","feud",2,1,79,4.013,28,0.7,1,1,1,2.983,"emperor",0,NA,8.203
"6745","shrink","mafia",3,1,20,1.946,38,0.95,1,0,0,0.868,"space",0,NA,10.157
"6745","grip","beach",4,1,22,1.699,32,0.8,1,0,0,0.87,"vice",0,NA,5.331
"6745","smother","surgery",5,1,95,1.669,39,0.975,1,1,1,1.003,"cover",0,NA,8.842
"6745","fee","chowder",6,1,18,3.885,21,0.525,1,0,0,0.99,"table",0,NA,6.38
"6745","capital","figure",7,1,77,2.139,30,0.75,1,1,1,1.054,"knowledge",0,NA,10.49
"6745","remind","foam",8,1,76,1.846,22,0.55,1,1,1,1.47,"record",0,NA,11.819
"6745","calf","annoy",9,1,35,2.17,33,0.825,0,0,1,0.958,"",NA,NA,NA
"6745","mill","feast",10,1,19,3.048,10,0.25,1,0,0,1.083,"reform",0,NA,9.134
"6745","risk","zero",11,1,15,2.193,36,0.9,0,1,0,0.9,"",NA,NA,NA
"6745","replace","roach",12,1,70,2.715,16,0.4,0,0,1,2.048,"",NA,NA,NA
"6745","bleach","ruin",13,1,100,3.655,2,0.05,1,1,1,1.113,"ruin",1,NA,5.687
"6745","process","joker",14,1,13,1.708,19,0.475,0,1,0,0.878,"",NA,NA,NA
"6745","knock","otter",15,1,78,2.377,26,0.65,1,1,1,0.97,"door",0,NA,3.807
"6745","want","ascent",16,1,10,1.669,12,0.3,0,1,0,0.962,"",NA,NA,NA
"6745","date","laugh",17,1,60,2.009,40,1,0,0,1,0.921,"",NA,NA,NA
"6745","plant","worm",18,1,68,1.985,35,0.875,0,0,1,1.154,"",NA,NA,NA
"6745","biology","temper",19,1,84,1.716,27,0.675,1,1,1,0.921,"species",0,NA,5.952
"6745","climax","saucer",20,1,9,1.961,11,0.275,0,1,0,0.762,"",NA,NA,NA
"6745","glue","force",21,1,95,3.778,6,0.15,1,0,0,0.946,"force",1,NA,5.707
"6745","port","cinema",22,1,76,3.167,23,0.575,1,1,1,0.869,"arrival",0,NA,5.407
"6745","visit","glove",23,1,72,2.131,24,0.6,0,0,1,1.013,"",NA,NA,NA
"6745","caring","skirt",24,1,79,1.986,29,0.725,1,1,1,0.87,"concern",0,NA,5.179
"6745","anger","decay",25,1,10,1.792,18,0.45,0,1,0,1.069,"",NA,NA,NA
"6745","link","crisis",26,1,28,2.193,34,0.85,0,0,1,1.04,"",NA,NA,NA
"6745","pork","emperor",27,1,83,2.285,5,0.125,1,0,0,1.354,"emperor",1,NA,7.332
"6745","fan","feature",28,1,13,1.732,20,0.5,0,1,0,0.899,"",NA,NA,NA
"6745","find","clown",29,1,70,2.182,31,0.775,0,0,1,1.177,"",NA,NA,NA
"6745","bias","sirloin",30,1,33,4.063,25,0.625,0,0,1,4.023,"",NA,NA,NA
"6745","nerve","bumper",31,1,13,1.732,13,0.325,0,1,0,0.883,"",NA,NA,NA
"6745","pea","bathtub",32,1,89,4.841,8,0.2,1,0,0,0.884,"bathtub",1,NA,6.917
"6745","rock","milk",33,1,16,2.439,9,0.225,0,1,0,0.768,"",NA,NA,NA
"6745","copy","bedroom",34,1,7,5.553,1,0.025,0,0,1,5.782,"",NA,NA,NA
"6745","forest","knob",35,1,65,1.931,7,0.175,1,0,0,6.633,"refrain",0,NA,10.751
"6745","collect","loyalty",36,1,16,1.715,4,0.1,0,1,0,0.87,"",NA,NA,NA
"6745","need","faucet",37,1,16,2.039,17,0.425,0,1,0,1.067,"",NA,NA,NA
"6745","chicken","beet",38,1,72,2.178,14,0.35,1,1,1,1.115,"freedom",0,NA,5.39
"6745","bullet","walkway",39,1,22,1.968,3,0.075,1,0,0,0.883,"train",0,NA,4.677
"6745","banner","glide",40,1,69,1.829,37,0.925,0,0,1,0.985,"",NA,NA,NA
"6745","anger","decay",1,2,10,1.792,18,0.45,0,1,0,1.069,"",NA,NA,NA
"6745","link","crisis",2,2,28,2.193,34,0.85,0,0,1,1.04,"",NA,NA,NA
"6745","pork","emperor",3,2,83,2.285,5,0.125,1,0,0,1.354,"emperor",1,NA,8.841
"6745","banner","glide",4,2,69,1.829,37,0.925,0,0,1,0.985,"",NA,NA,NA
"6745","knock","otter",5,2,78,2.377,26,0.65,1,1,1,0.97,"door",0,NA,3.632
"6745","plant","worm",6,2,68,1.985,35,0.875,0,0,1,1.154,"",NA,NA,NA
"6745","glue","force",7,2,95,3.778,6,0.15,1,0,0,0.946,"force",1,NA,6.296
"6745","fee","chowder",8,2,18,3.885,21,0.525,1,0,0,0.99,"frame",0,NA,5.016
"6745","bullet","walkway",9,2,22,1.968,3,0.075,1,0,0,0.883,"train",0,NA,3.77
"6745","forest","knob",10,2,65,1.931,7,0.175,1,0,0,6.633,"refrain",0,NA,10.865
"6745","port","cinema",11,2,76,3.167,23,0.575,1,1,1,0.869,"return",0,NA,9.465
"6745","process","joker",12,2,13,1.708,19,0.475,0,1,0,0.878,"",NA,NA,NA
"6745","replace","roach",13,2,70,2.715,16,0.4,0,0,1,2.048,"",NA,NA,NA
"6745","copy","bedroom",14,2,7,5.553,1,0.025,0,0,1,5.782,"",NA,NA,NA
"6745","pea","bathtub",15,2,89,4.841,8,0.2,1,0,0,0.884,"bathtub",1,NA,5.447
"6745","remind","foam",16,2,76,1.846,22,0.55,1,1,1,1.47,"dormer",0,NA,6.519
"6745","want","ascent",17,2,10,1.669,12,0.3,0,1,0,0.962,"",NA,NA,NA
"6745","shrink","mafia",18,2,20,1.946,38,0.95,1,0,0,0.868,"frame",0,NA,10.216
"6745","date","laugh",19,2,60,2.009,40,1,0,0,1,0.921,"",NA,NA,NA
"6745","rock","milk",20,2,16,2.439,9,0.225,0,1,0,0.768,"",NA,NA,NA
"6745","mill","feast",21,2,19,3.048,10,0.25,1,0,0,1.083,"reform",0,NA,11.219
"6745","visit","glove",22,2,72,2.131,24,0.6,0,0,1,1.013,"",NA,NA,NA
"6745","bacon","feud",23,2,79,4.013,28,0.7,1,1,1,2.983,"emperor",0,NA,16.908
"6745","prison","loaf",24,2,18,1.808,15,0.375,1,0,0,0.876,"frame",0,NA,7.825
"6745","calf","annoy",25,2,35,2.17,33,0.825,0,0,1,0.958,"",NA,NA,NA
"6745","bias","sirloin",26,2,33,4.063,25,0.625,0,0,1,4.023,"",NA,NA,NA
"6745","capital","figure",27,2,77,2.139,30,0.75,1,1,1,1.054,"frame",0,NA,6.663
"6745","collect","loyalty",28,2,16,1.715,4,0.1,0,1,0,0.87,"",NA,NA,NA
"6745","grip","beach",29,2,22,1.699,32,0.8,1,0,0,0.87,"date",0,NA,8.14
"6745","need","faucet",30,2,16,2.039,17,0.425,0,1,0,1.067,"",NA,NA,NA
"6745","caring","skirt",31,2,79,1.986,29,0.725,1,1,1,0.87,"healing",0,NA,4.882
"6745","biology","temper",32,2,84,1.716,27,0.675,1,1,1,0.921,"class",0,NA,4.307
"6745","chicken","beet",33,2,72,2.178,14,0.35,1,1,1,1.115,"dredge",0,NA,10.349
"6745","nerve","bumper",34,2,13,1.732,13,0.325,0,1,0,0.883,"",NA,NA,NA
"6745","find","clown",35,2,70,2.182,31,0.775,0,0,1,1.177,"",NA,NA,NA
"6745","smother","surgery",36,2,95,1.669,39,0.975,1,1,1,1.003,"chicken",0,NA,7.287
"6745","climax","saucer",37,2,9,1.961,11,0.275,0,1,0,0.762,"",NA,NA,NA
"6745","risk","zero",38,2,15,2.193,36,0.9,0,1,0,0.9,"",NA,NA,NA
"6745","bleach","ruin",39,2,100,3.655,2,0.05,1,1,1,1.113,"ruin",1,NA,4.605
"6745","fan","feature",40,2,13,1.732,20,0.5,0,1,0,0.899,"",NA,NA,NA
"6745","find","clown",1,3,70,2.182,31,0.775,0,0,1,1.177,"",NA,NA,NA
"6745","nerve","bumper",2,3,13,1.732,13,0.325,0,1,0,0.883,"",NA,NA,NA
"6745","replace","roach",3,3,70,2.715,16,0.4,0,0,1,2.048,"",NA,NA,NA
"6745","bias","sirloin",4,3,33,4.063,25,0.625,0,0,1,4.023,"",NA,NA,NA
"6745","chicken","beet",5,3,72,2.178,14,0.35,1,1,1,1.115,"dredge",0,NA,8.128
"6745","capital","figure",6,3,77,2.139,30,0.75,1,1,1,1.054,"frame",0,NA,8.825
"6745","want","ascent",7,3,10,1.669,12,0.3,0,1,0,0.962,"",NA,NA,NA
"6745","bacon","feud",8,3,79,4.013,28,0.7,1,1,1,2.983,"emperor",0,NA,5.067
"6745","need","faucet",9,3,16,2.039,17,0.425,0,1,0,1.067,"",NA,NA,NA
"6745","smother","surgery",10,3,95,1.669,39,0.975,1,1,1,1.003,"frame",0,NA,5.065
"6745","banner","glide",11,3,69,1.829,37,0.925,0,0,1,0.985,"",NA,NA,NA
"6745","pea","bathtub",12,3,89,4.841,8,0.2,1,0,0,0.884,"bathtub",1,NA,8.257
"6745","fee","chowder",13,3,18,3.885,21,0.525,1,0,0,0.99,"nominal",0,NA,9.772
"6745","caring","skirt",14,3,79,1.986,29,0.725,1,1,1,0.87,"elegant",0,NA,7.933
"6745","visit","glove",15,3,72,2.131,24,0.6,0,0,1,1.013,"",NA,NA,NA
"6745","bleach","ruin",16,3,100,3.655,2,0.05,1,1,1,1.113,"ruin",1,NA,4.56
"6745","grip","beach",17,3,22,1.699,32,0.8,1,0,0,0.87,"hold",0,NA,4.979
"6745","plant","worm",18,3,68,1.985,35,0.875,0,0,1,1.154,"",NA,NA,NA
"6745","fan","feature",19,3,13,1.732,20,0.5,0,1,0,0.899,"",NA,NA,NA
"6745","port","cinema",20,3,76,3.167,23,0.575,1,1,1,0.869,"arrival",0,NA,6.888
"6745","knock","otter",21,3,78,2.377,26,0.65,1,1,1,0.97,"door",0,NA,3.262
"6745","shrink","mafia",22,3,20,1.946,38,0.95,1,0,0,0.868,"gate",0,NA,5.132
"6745","collect","loyalty",23,3,16,1.715,4,0.1,0,1,0,0.87,"",NA,NA,NA
"6745","glue","force",24,3,95,3.778,6,0.15,1,0,0,0.946,"force",1,NA,5.748
"6745","link","crisis",25,3,28,2.193,34,0.85,0,0,1,1.04,"",NA,NA,NA
"6745","bullet","walkway",26,3,22,1.968,3,0.075,1,0,0,0.883,"train",0,NA,10.914
"6745","prison","loaf",27,3,18,1.808,15,0.375,1,0,0,0.876,"reform",0,NA,5.548
"6745","biology","temper",28,3,84,1.716,27,0.675,1,1,1,0.921,"class",0,NA,4.7
"6745","pork","emperor",29,3,83,2.285,5,0.125,1,0,0,1.354,"emperor",1,NA,5.863
"6745","remind","foam",30,3,76,1.846,22,0.55,1,1,1,1.47,"time",0,NA,4.34
"6745","forest","knob",31,3,65,1.931,7,0.175,1,0,0,6.633,"refrain",0,NA,11.584
"6745","calf","annoy",32,3,35,2.17,33,0.825,0,0,1,0.958,"",NA,NA,NA
"6745","risk","zero",33,3,15,2.193,36,0.9,0,1,0,0.9,"",NA,NA,NA
"6745","anger","decay",34,3,10,1.792,18,0.45,0,1,0,1.069,"",NA,NA,NA
"6745","mill","feast",35,3,19,3.048,10,0.25,1,0,0,1.083,"frame",0,NA,11.959
"6745","date","laugh",36,3,60,2.009,40,1,0,0,1,0.921,"",NA,NA,NA
"6745","climax","saucer",37,3,9,1.961,11,0.275,0,1,0,0.762,"",NA,NA,NA
"6745","rock","milk",38,3,16,2.439,9,0.225,0,1,0,0.768,"",NA,NA,NA
"6745","process","joker",39,3,13,1.708,19,0.475,0,1,0,0.878,"",NA,NA,NA
"6745","copy","bedroom",40,3,7,5.553,1,0.025,0,0,1,5.782,"",NA,NA,NA
"6913","grip","beach",1,1,94,4.243,29,0.725,1,1,1,4.825,"beach",1,NA,77.924
"6913","mill","feast",2,1,92,2.709,38,0.95,0,0,1,2.829,"",NA,NA,NA
"6913","pork","emperor",3,1,60,3.579,5,0.125,0,1,0,1.519,"",NA,NA,NA
"6913","link","crisis",4,1,89,3.653,14,0.35,1,0,0,0.974,"crisis",1,NA,441.501
"6913","bacon","feud",5,1,93,8.245,36,0.9,1,1,1,1.471,"feud",1,NA,495.789
"6913","visit","glove",6,1,92,3.076,2,0.05,1,0,0,1.022,"glove",1,NA,97.855
"6913","need","faucet",7,1,65,2.525,27,0.675,0,1,0,0.822,"",NA,NA,NA
"6913","caring","skirt",8,1,94,3.037,25,0.625,1,0,0,0.992,"skirt",1,NA,173.889
"6913","calf","annoy",9,1,92,3.781,37,0.925,0,0,1,1.059,"",NA,NA,NA
"6913","capital","figure",10,1,90,3.262,40,1,0,0,1,1.021,"",NA,NA,NA
"6913","replace","roach",11,1,66,2.574,17,0.425,0,1,0,1.007,"",NA,NA,NA
"6913","bias","sirloin",12,1,93,3.934,1,0.025,1,1,1,4.831,"sirloin",1,NA,29.506
"6913","port","cinema",13,1,81,3.285,23,0.575,1,0,0,1.03,"cinema",1,NA,261.991
"6913","chicken","beet",14,1,100,2.485,4,0.1,1,0,0,1.03,"beet",1,NA,12.339
"6913","date","laugh",15,1,75,2.695,22,0.55,0,1,0,1.218,"",NA,NA,NA
"6913","find","clown",16,1,92,3.205,31,0.775,0,0,1,1.367,"",NA,NA,NA
"6913","fee","chowder",17,1,94,14.331,8,0.2,1,1,1,1.23,"chowder",1,NA,82.705
"6913","smother","surgery",18,1,62,2.677,11,0.275,0,1,0,1.303,"",NA,NA,NA
"6913","climax","saucer",19,1,93,3.66,19,0.475,1,0,0,3.431,"saucer",1,NA,40.602
"6913","process","joker",20,1,96,4.47,18,0.45,1,0,0,1.358,"joker",1,NA,64.127
"6913","nerve","bumper",21,1,81,3.941,20,0.5,1,0,0,1.013,"bumper",1,NA,24.462
"6913","biology","temper",22,1,92,3.019,3,0.075,0,0,1,1.143,"",NA,NA,NA
"6913","bullet","walkway",23,1,100,2.572,10,0.25,1,0,0,1.182,"walkway",1,NA,26.343
"6913","want","ascent",24,1,95,5.207,39,0.975,1,1,1,3.477,"ascent",1,NA,33.446
"6913","collect","loyalty",25,1,91,5.575,33,0.825,0,0,1,2.069,"",NA,NA,NA
"6913","glue","force",26,1,95,5.743,9,0.225,1,1,1,1.256,"force",1,NA,24.868
"6913","rock","milk",27,1,76,2.71,34,0.85,0,1,0,1.187,"",NA,NA,NA
"6913","forest","knob",28,1,93,3.517,30,0.75,1,1,1,1.251,"knob",1,NA,15.127
"6913","fan","feature",29,1,93,10.212,28,0.7,0,0,1,0.854,"",NA,NA,NA
"6913","banner","glide",30,1,81,2.74,21,0.525,1,0,0,1.181,"glide",1,NA,14.812
"6913","plant","worm",31,1,95,4.357,32,0.8,1,1,1,1.765,"worm",1,NA,28.806
"6913","remind","foam",32,1,95,3.741,13,0.325,1,1,1,1.63,"foam",1,NA,13.583
"6913","knock","otter",33,1,88,4.622,15,0.375,0,0,1,1.085,"",NA,NA,NA
"6913","bleach","ruin",34,1,93,3.533,6,0.15,1,1,1,0.997,"ruin",1,NA,46.58
"6913","copy","bedroom",35,1,76,3.253,16,0.4,0,1,0,1.103,"",NA,NA,NA
"6913","pea","bathtub",36,1,92,2.948,7,0.175,0,0,1,1.189,"",NA,NA,NA
"6913","risk","zero",37,1,82,2.86,35,0.875,0,0,1,2.359,"",NA,NA,NA
"6913","anger","decay",38,1,73,3.038,12,0.3,0,1,0,1.101,"",NA,NA,NA
"6913","shrink","mafia",39,1,81,10.099,26,0.65,0,1,0,5.707,"",NA,NA,NA
"6913","prison","loaf",40,1,62,2.598,24,0.6,0,1,0,1.071,"",NA,NA,NA
"6913","glue","force",1,2,95,5.743,9,0.225,1,1,1,1.256,"force",1,NA,16.927
"6913","capital","figure",2,2,90,3.262,40,1,0,0,1,1.021,"",NA,NA,NA
"6913","want","ascent",3,2,95,5.207,39,0.975,1,1,1,3.477,"ascent",1,NA,37.007
"6913","climax","saucer",4,2,93,3.66,19,0.475,1,0,0,3.431,"saucer",1,NA,16.47
"6913","pork","emperor",5,2,60,3.579,5,0.125,0,1,0,1.519,"",NA,NA,NA
"6913","process","joker",6,2,96,4.47,18,0.45,1,0,0,1.358,"joker",1,NA,30.813
"6913","fee","chowder",7,2,94,14.331,8,0.2,1,1,1,1.23,"chowder",1,NA,21.638
"6913","nerve","bumper",8,2,81,3.941,20,0.5,1,0,0,1.013,"bumper",1,NA,127.207
"6913","plant","worm",9,2,95,4.357,32,0.8,1,1,1,1.765,"worm",1,NA,28.636
"6913","smother","surgery",10,2,62,2.677,11,0.275,0,1,0,1.303,"",NA,NA,NA
"6913","bullet","walkway",11,2,100,2.572,10,0.25,1,0,0,1.182,"walkway",1,NA,7.712
"6913","date","laugh",12,2,75,2.695,22,0.55,0,1,0,1.218,"",NA,NA,NA
"6913","bacon","feud",13,2,93,8.245,36,0.9,1,1,1,1.471,"feud",1,NA,14.604
"6913","caring","skirt",14,2,94,3.037,25,0.625,1,0,0,0.992,"skirt",1,NA,26.51
"6913","need","faucet",15,2,65,2.525,27,0.675,0,1,0,0.822,"",NA,NA,NA
"6913","bias","sirloin",16,2,93,3.934,1,0.025,1,1,1,4.831,"sirloin",1,NA,20.709
"6913","knock","otter",17,2,88,4.622,15,0.375,0,0,1,1.085,"",NA,NA,NA
"6913","rock","milk",18,2,76,2.71,34,0.85,0,1,0,1.187,"",NA,NA,NA
"6913","visit","glove",19,2,92,3.076,2,0.05,1,0,0,1.022,"glove",1,NA,28.335
"6913","risk","zero",20,2,82,2.86,35,0.875,0,0,1,2.359,"",NA,NA,NA
"6913","copy","bedroom",21,2,76,3.253,16,0.4,0,1,0,1.103,"",NA,NA,NA
"6913","find","clown",22,2,92,3.205,31,0.775,0,0,1,1.367,"",NA,NA,NA
"6913","mill","feast",23,2,92,2.709,38,0.95,0,0,1,2.829,"",NA,NA,NA
"6913","port","cinema",24,2,81,3.285,23,0.575,1,0,0,1.03,"cinema",1,NA,44.516
"6913","remind","foam",25,2,95,3.741,13,0.325,1,1,1,1.63,"foam",1,NA,24.231
"6913","link","crisis",26,2,89,3.653,14,0.35,1,0,0,0.974,"crisis",1,NA,30.687
"6913","fan","feature",27,2,93,10.212,28,0.7,0,0,1,0.854,"",NA,NA,NA
"6913","banner","glide",28,2,81,2.74,21,0.525,1,0,0,1.181,"glider",0,NA,16.867
"6913","replace","roach",29,2,66,2.574,17,0.425,0,1,0,1.007,"",NA,NA,NA
"6913","shrink","mafia",30,2,81,10.099,26,0.65,0,1,0,5.707,"",NA,NA,NA
"6913","anger","decay",31,2,73,3.038,12,0.3,0,1,0,1.101,"",NA,NA,NA
"6913","collect","loyalty",32,2,91,5.575,33,0.825,0,0,1,2.069,"",NA,NA,NA
"6913","chicken","beet",33,2,100,2.485,4,0.1,1,0,0,1.03,"beet",1,NA,4.263
"6913","bleach","ruin",34,2,93,3.533,6,0.15,1,1,1,0.997,"ruin",1,NA,25.766
"6913","forest","knob",35,2,93,3.517,30,0.75,1,1,1,1.251,"knob",1,NA,16.054
"6913","biology","temper",36,2,92,3.019,3,0.075,0,0,1,1.143,"",NA,NA,NA
"6913","pea","bathtub",37,2,92,2.948,7,0.175,0,0,1,1.189,"",NA,NA,NA
"6913","prison","loaf",38,2,62,2.598,24,0.6,0,1,0,1.071,"",NA,NA,NA
"6913","calf","annoy",39,2,92,3.781,37,0.925,0,0,1,1.059,"",NA,NA,NA
"6913","grip","beach",40,2,94,4.243,29,0.725,1,1,1,4.825,"beach",1,NA,37.705
"6913","knock","otter",1,3,88,4.622,15,0.375,0,0,1,1.085,"",NA,NA,NA
"6913","port","cinema",2,3,81,3.285,23,0.575,1,0,0,1.03,"cinema",1,NA,46.047
"6913","plant","worm",3,3,95,4.357,32,0.8,1,1,1,1.765,"worm",1,NA,14.696
"6913","pea","bathtub",4,3,92,2.948,7,0.175,0,0,1,1.189,"",NA,NA,NA
"6913","visit","glove",5,3,92,3.076,2,0.05,1,0,0,1.022,"glove",1,NA,21.52
"6913","bleach","ruin",6,3,93,3.533,6,0.15,1,1,1,0.997,"ruin",1,NA,29.166
"6913","capital","figure",7,3,90,3.262,40,1,0,0,1,1.021,"",NA,NA,NA
"6913","fee","chowder",8,3,94,14.331,8,0.2,1,1,1,1.23,"chowder",1,NA,24.282
"6913","caring","skirt",9,3,94,3.037,25,0.625,1,0,0,0.992,"skirt",1,NA,32.712
"6913","glue","force",10,3,95,5.743,9,0.225,1,1,1,1.256,"force",1,NA,20.016
"6913","forest","knob",11,3,93,3.517,30,0.75,1,1,1,1.251,"knob",1,NA,12.95
"6913","rock","milk",12,3,76,2.71,34,0.85,0,1,0,1.187,"",NA,NA,NA
"6913","bullet","walkway",13,3,100,2.572,10,0.25,1,0,0,1.182,"walkway",1,NA,12.043
"6913","chicken","beet",14,3,100,2.485,4,0.1,1,0,0,1.03,"beet",1,NA,4.984
"6913","mill","feast",15,3,92,2.709,38,0.95,0,0,1,2.829,"",NA,NA,NA
"6913","shrink","mafia",16,3,81,10.099,26,0.65,0,1,0,5.707,"",NA,NA,NA
"6913","replace","roach",17,3,66,2.574,17,0.425,0,1,0,1.007,"",NA,NA,NA
"6913","collect","loyalty",18,3,91,5.575,33,0.825,0,0,1,2.069,"",NA,NA,NA
"6913","grip","beach",19,3,94,4.243,29,0.725,1,1,1,4.825,"beach",1,NA,35.267
"6913","want","ascent",20,3,95,5.207,39,0.975,1,1,1,3.477,"ascent",1,NA,13.045
"6913","need","faucet",21,3,65,2.525,27,0.675,0,1,0,0.822,"",NA,NA,NA
"6913","climax","saucer",22,3,93,3.66,19,0.475,1,0,0,3.431,"saucer",1,NA,36.852
"6913","bias","sirloin",23,3,93,3.934,1,0.025,1,1,1,4.831,"sirloin",1,NA,21.734
"6913","anger","decay",24,3,73,3.038,12,0.3,0,1,0,1.101,"",NA,NA,NA
"6913","banner","glide",25,3,81,2.74,21,0.525,1,0,0,1.181,"glide",1,NA,14.973
"6913","calf","annoy",26,3,92,3.781,37,0.925,0,0,1,1.059,"",NA,NA,NA
"6913","remind","foam",27,3,95,3.741,13,0.325,1,1,1,1.63,"foam",1,NA,19.34
"6913","prison","loaf",28,3,62,2.598,24,0.6,0,1,0,1.071,"",NA,NA,NA
"6913","fan","feature",29,3,93,10.212,28,0.7,0,0,1,0.854,"",NA,NA,NA
"6913","bacon","feud",30,3,93,8.245,36,0.9,1,1,1,1.471,"feud",1,NA,24.778
"6913","find","clown",31,3,92,3.205,31,0.775,0,0,1,1.367,"",NA,NA,NA
"6913","copy","bedroom",32,3,76,3.253,16,0.4,0,1,0,1.103,"",NA,NA,NA
"6913","pork","emperor",33,3,60,3.579,5,0.125,0,1,0,1.519,"",NA,NA,NA
"6913","biology","temper",34,3,92,3.019,3,0.075,0,0,1,1.143,"",NA,NA,NA
"6913","nerve","bumper",35,3,81,3.941,20,0.5,1,0,0,1.013,"bumper",1,NA,87.226
"6913","smother","surgery",36,3,62,2.677,11,0.275,0,1,0,1.303,"",NA,NA,NA
"6913","risk","zero",37,3,82,2.86,35,0.875,0,0,1,2.359,"",NA,NA,NA
"6913","process","joker",38,3,96,4.47,18,0.45,1,0,0,1.358,"joker",1,NA,11.313
"6913","link","crisis",39,3,89,3.653,14,0.35,1,0,0,0.974,"crisis",1,NA,18.174
"6913","date","laugh",40,3,75,2.695,22,0.55,0,1,0,1.218,"",NA,NA,NA
"7783","copy","bedroom",1,1,11,3.529,10,0.25,0,1,0,0.787,"",NA,NA,NA
"7783","date","laugh",2,1,98,4.302,12,0.3,1,1,1,0.894,"laugh",1,NA,8.07
"7783","glue","force",3,1,93,4.965,19,0.475,1,1,1,0.783,"force",1,NA,11.38
"7783","pork","emperor",4,1,15,3.289,27,0.675,0,1,0,0.834,"",NA,NA,NA
"7783","port","cinema",5,1,12,12.91,40,1,0,1,0,0.983,"",NA,NA,NA
"7783","replace","roach",6,1,15,2.193,9,0.225,0,1,0,0.703,"",NA,NA,NA
"7783","bacon","feud",7,1,90,7.585,39,0.975,1,1,1,0.952,"feud",1,NA,6.412
"7783","find","clown",8,1,24,2.645,21,0.525,0,0,1,0.799,"",NA,NA,NA
"7783","calf","annoy",9,1,67,7.13,20,0.5,0,0,1,1.575,"",NA,NA,NA
"7783","process","joker",10,1,7,2.158,35,0.875,0,1,0,1.09,"",NA,NA,NA
"7783","capital","figure",11,1,30,8.814,31,0.775,1,0,0,1.119,"loaf",0,NA,16.879
"7783","bullet","walkway",12,1,22,2.608,11,0.275,0,0,1,0.963,"",NA,NA,NA
"7783","bleach","ruin",13,1,93,2.509,36,0.9,1,1,1,1.019,"ruin",1,NA,2.955
"7783","plant","worm",14,1,18,2.519,14,0.35,1,0,0,1.007,"hallway",0,NA,9.007
"7783","remind","foam",15,1,20,5.316,15,0.375,1,0,0,3.903,"loaf",0,NA,12.447
"7783","climax","saucer",16,1,17,5.933,16,0.4,1,0,0,1.391,"annoy",0,NA,5.388
"7783","fan","feature",17,1,89,3.962,38,0.95,0,0,1,0.802,"",NA,NA,NA
"7783","caring","skirt",18,1,9,2.242,23,0.575,0,1,0,0.83,"",NA,NA,NA
"7783","pea","bathtub",19,1,94,3.802,6,0.15,1,1,1,1.056,"bedroom",0,NA,9.989
"7783","forest","knob",20,1,93,11.117,18,0.45,1,1,1,0.911,"knob",1,NA,2.967
"7783","prison","loaf",21,1,96,3.606,5,0.125,1,1,1,1.137,"loaf",1,NA,2.568
"7783","visit","glove",22,1,17,2.394,3,0.075,1,0,0,0.823,"dagger",0,NA,16.861
"7783","bias","sirloin",23,1,7,2.088,28,0.7,0,1,0,1.087,"",NA,NA,NA
"7783","fee","chowder",24,1,20,3.216,37,0.925,1,0,0,0.815,"don't remember",0,NA,15.182
"7783","rock","milk",25,1,97,3.846,2,0.05,1,1,1,0.828,"milk",1,NA,3.489
"7783","need","faucet",26,1,17,5.846,4,0.1,1,0,0,0.852,"i don't remember",0,NA,8.584
"7783","collect","loyalty",27,1,15,2.256,32,0.8,0,1,0,0.718,"",NA,NA,NA
"7783","smother","surgery",28,1,20,10.055,30,0.75,0,0,1,16.877,"",NA,NA,NA
"7783","anger","decay",29,1,61,5.985,33,0.825,0,0,1,0.791,"",NA,NA,NA
"7783","chicken","beet",30,1,90,4.597,13,0.325,1,1,1,1.207,"beet",1,NA,2.384
"7783","biology","temper",31,1,12,2.137,29,0.725,0,1,0,1.15,"",NA,NA,NA
"7783","link","crisis",32,1,19,2.042,7,0.175,1,0,0,0.974,"i don't remember",0,NA,8.308
"7783","grip","beach",33,1,41,10.665,34,0.85,0,0,1,0.846,"",NA,NA,NA
"7783","mill","feast",34,1,19,2.358,22,0.55,1,0,0,0.705,"forest",0,NA,4.591
"7783","shrink","mafia",35,1,64,2.296,24,0.6,0,0,1,0.75,"",NA,NA,NA
"7783","want","ascent",36,1,10,2.699,1,0.025,0,1,0,0.829,"",NA,NA,NA
"7783","banner","glide",37,1,31,2.945,26,0.65,0,0,1,0.926,"",NA,NA,NA
"7783","nerve","bumper",38,1,21,4.71,17,0.425,1,0,0,7.526,"annoy",0,NA,8.815
"7783","risk","zero",39,1,61,4.254,25,0.625,0,0,1,1.182,"",NA,NA,NA
"7783","knock","otter",40,1,93,4.18,8,0.2,1,1,1,0.752,"forest",0,NA,5.611
"7783","climax","saucer",1,2,17,5.933,16,0.4,1,0,0,1.391,"cinima",0,NA,10.308
"7783","nerve","bumper",2,2,21,4.71,17,0.425,1,0,0,7.526,"I don't remember",0,NA,13.223
"7783","date","laugh",3,2,98,4.302,12,0.3,1,1,1,0.894,"laugh",1,NA,5.486
"7783","port","cinema",4,2,12,12.91,40,1,0,1,0,0.983,"",NA,NA,NA
"7783","visit","glove",5,2,17,2.394,3,0.075,1,0,0,0.823,"I don't remember",0,NA,10.163
"7783","anger","decay",6,2,61,5.985,33,0.825,0,0,1,0.791,"",NA,NA,NA
"7783","fan","feature",7,2,89,3.962,38,0.95,0,0,1,0.802,"",NA,NA,NA
"7783","glue","force",8,2,93,4.965,19,0.475,1,1,1,0.783,"force",1,NA,5.149
"7783","risk","zero",9,2,61,4.254,25,0.625,0,0,1,1.182,"",NA,NA,NA
"7783","grip","beach",10,2,41,10.665,34,0.85,0,0,1,0.846,"",NA,NA,NA
"7783","plant","worm",11,2,18,2.519,14,0.35,1,0,0,1.007,"bedroom ",0,NA,9.359
"7783","copy","bedroom",12,2,11,3.529,10,0.25,0,1,0,0.787,"",NA,NA,NA
"7783","mill","feast",13,2,19,2.358,22,0.55,1,0,0,0.705,"loaf",0,NA,10.9
"7783","fee","chowder",14,2,20,3.216,37,0.925,1,0,0,0.815,"I don't remember",0,NA,7.997
"7783","caring","skirt",15,2,9,2.242,23,0.575,0,1,0,0.83,"",NA,NA,NA
"7783","bleach","ruin",16,2,93,2.509,36,0.9,1,1,1,1.019,"ruin",1,NA,2.552
"7783","bullet","walkway",17,2,22,2.608,11,0.275,0,0,1,0.963,"",NA,NA,NA
"7783","want","ascent",18,2,10,2.699,1,0.025,0,1,0,0.829,"",NA,NA,NA
"7783","bias","sirloin",19,2,7,2.088,28,0.7,0,1,0,1.087,"",NA,NA,NA
"7783","knock","otter",20,2,93,4.18,8,0.2,1,1,1,0.752,"forest",0,NA,4.887
"7783","find","clown",21,2,24,2.645,21,0.525,0,0,1,0.799,"",NA,NA,NA
"7783","pork","emperor",22,2,15,3.289,27,0.675,0,1,0,0.834,"",NA,NA,NA
"7783","process","joker",23,2,7,2.158,35,0.875,0,1,0,1.09,"",NA,NA,NA
"7783","pea","bathtub",24,2,94,3.802,6,0.15,1,1,1,1.056,"I don't remember",0,NA,19.91
"7783","prison","loaf",25,2,96,3.606,5,0.125,1,1,1,1.137,"loaf",1,NA,3.144
"7783","smother","surgery",26,2,20,10.055,30,0.75,0,0,1,16.877,"",NA,NA,NA
"7783","bacon","feud",27,2,90,7.585,39,0.975,1,1,1,0.952,"feud",1,NA,7.409
"7783","capital","figure",28,2,30,8.814,31,0.775,1,0,0,1.119,"I don't remember",0,NA,3.787
"7783","biology","temper",29,2,12,2.137,29,0.725,0,1,0,1.15,"",NA,NA,NA
"7783","calf","annoy",30,2,67,7.13,20,0.5,0,0,1,1.575,"",NA,NA,NA
"7783","need","faucet",31,2,17,5.846,4,0.1,1,0,0,0.852,"I don't remember",0,NA,3.77
"7783","rock","milk",32,2,97,3.846,2,0.05,1,1,1,0.828,"milk",1,NA,3.058
"7783","forest","knob",33,2,93,11.117,18,0.45,1,1,1,0.911,"knob",1,NA,7.286
"7783","chicken","beet",34,2,90,4.597,13,0.325,1,1,1,1.207,"beet",1,NA,5.06
"7783","link","crisis",35,2,19,2.042,7,0.175,1,0,0,0.974,"I don't remember",0,NA,2.868
"7783","replace","roach",36,2,15,2.193,9,0.225,0,1,0,0.703,"",NA,NA,NA
"7783","shrink","mafia",37,2,64,2.296,24,0.6,0,0,1,0.75,"",NA,NA,NA
"7783","collect","loyalty",38,2,15,2.256,32,0.8,0,1,0,0.718,"",NA,NA,NA
"7783","remind","foam",39,2,20,5.316,15,0.375,1,0,0,3.903,"hallway",0,NA,5.927
"7783","banner","glide",40,2,31,2.945,26,0.65,0,0,1,0.926,"",NA,NA,NA
"7783","shrink","mafia",1,3,64,2.296,24,0.6,0,0,1,0.75,"",NA,NA,NA
"7783","plant","worm",2,3,18,2.519,14,0.35,1,0,0,1.007,"I don't remember",0,NA,5.932
"7783","prison","loaf",3,3,96,3.606,5,0.125,1,1,1,1.137,"loaf",1,NA,3.171
"7783","want","ascent",4,3,10,2.699,1,0.025,0,1,0,0.829,"",NA,NA,NA
"7783","pea","bathtub",5,3,94,3.802,6,0.15,1,1,1,1.056,"bedroom",0,NA,11.069
"7783","link","crisis",6,3,19,2.042,7,0.175,1,0,0,0.974,"I don't remember",0,NA,2.537
"7783","calf","annoy",7,3,67,7.13,20,0.5,0,0,1,1.575,"",NA,NA,NA
"7783","remind","foam",8,3,20,5.316,15,0.375,1,0,0,3.903,"I don't remember ",0,NA,2.877
"7783","chicken","beet",9,3,90,4.597,13,0.325,1,1,1,1.207,"beet",1,NA,2.845
"7783","date","laugh",10,3,98,4.302,12,0.3,1,1,1,0.894,"laugh",1,NA,2.018
"7783","forest","knob",11,3,93,11.117,18,0.45,1,1,1,0.911,"knob",1,NA,3.453
"7783","replace","roach",12,3,15,2.193,9,0.225,0,1,0,0.703,"",NA,NA,NA
"7783","fan","feature",13,3,89,3.962,38,0.95,0,0,1,0.802,"",NA,NA,NA
"7783","grip","beach",14,3,41,10.665,34,0.85,0,0,1,0.846,"",NA,NA,NA
"7783","banner","glide",15,3,31,2.945,26,0.65,0,0,1,0.926,"",NA,NA,NA
"7783","mill","feast",16,3,19,2.358,22,0.55,1,0,0,0.705,"I don't remember",0,NA,2.923
"7783","smother","surgery",17,3,20,10.055,30,0.75,0,0,1,16.877,"",NA,NA,NA
"7783","visit","glove",18,3,17,2.394,3,0.075,1,0,0,0.823,"hallway",0,NA,4.331
"7783","rock","milk",19,3,97,3.846,2,0.05,1,1,1,0.828,"milk",1,NA,2.651
"7783","climax","saucer",20,3,17,5.933,16,0.4,1,0,0,1.391,"cinima",0,NA,4.576
"7783","find","clown",21,3,24,2.645,21,0.525,0,0,1,0.799,"",NA,NA,NA
"7783","fee","chowder",22,3,20,3.216,37,0.925,1,0,0,0.815,"I don't remember",0,NA,6.918
"7783","copy","bedroom",23,3,11,3.529,10,0.25,0,1,0,0.787,"",NA,NA,NA
"7783","caring","skirt",24,3,9,2.242,23,0.575,0,1,0,0.83,"",NA,NA,NA
"7783","biology","temper",25,3,12,2.137,29,0.725,0,1,0,1.15,"",NA,NA,NA
"7783","collect","loyalty",26,3,15,2.256,32,0.8,0,1,0,0.718,"",NA,NA,NA
"7783","bleach","ruin",27,3,93,2.509,36,0.9,1,1,1,1.019,"ruin",1,NA,2.453
"7783","knock","otter",28,3,93,4.18,8,0.2,1,1,1,0.752,"forest",0,NA,3.053
"7783","risk","zero",29,3,61,4.254,25,0.625,0,0,1,1.182,"",NA,NA,NA
"7783","bullet","walkway",30,3,22,2.608,11,0.275,0,0,1,0.963,"",NA,NA,NA
"7783","port","cinema",31,3,12,12.91,40,1,0,1,0,0.983,"",NA,NA,NA
"7783","need","faucet",32,3,17,5.846,4,0.1,1,0,0,0.852,"I don't remember",0,NA,3.245
"7783","capital","figure",33,3,30,8.814,31,0.775,1,0,0,1.119,"I don't remember",0,NA,4.855
"7783","pork","emperor",34,3,15,3.289,27,0.675,0,1,0,0.834,"",NA,NA,NA
"7783","glue","force",35,3,93,4.965,19,0.475,1,1,1,0.783,"force",1,NA,6.544
"7783","nerve","bumper",36,3,21,4.71,17,0.425,1,0,0,7.526,"I don't remember",0,NA,2.284
"7783","anger","decay",37,3,61,5.985,33,0.825,0,0,1,0.791,"",NA,NA,NA
"7783","bias","sirloin",38,3,7,2.088,28,0.7,0,1,0,1.087,"",NA,NA,NA
"7783","process","joker",39,3,7,2.158,35,0.875,0,1,0,1.09,"",NA,NA,NA
"7783","bacon","feud",40,3,90,7.585,39,0.975,1,1,1,0.952,"feud",1,NA,10.186
"8301","visit","glove",1,1,82,3.871,18,0.45,0,0,1,2.159,"",NA,NA,NA
"8301","collect","loyalty",2,1,95,4.86,1,0.025,1,1,1,2.59,"loyalty",1,NA,24.795
"8301","remind","foam",3,1,81,2.845,2,0.05,0,1,0,1.251,"",NA,NA,NA
"8301","date","laugh",4,1,85,7.598,15,0.375,0,0,1,1.524,"",NA,NA,NA
"8301","anger","decay",5,1,89,3.266,31,0.775,0,1,0,2.13,"",NA,NA,NA
"8301","climax","saucer",6,1,92,3.354,9,0.225,1,0,0,2.111,"foot",0,NA,116.665
"8301","banner","glide",7,1,93,2.747,40,1,1,0,0,1.261,"glide",1,NA,23.651
"8301","pork","emperor",8,1,89,3.9,33,0.825,1,1,1,1.691,"emperor",1,NA,37.069
"8301","process","joker",9,1,85,4.616,21,0.525,0,0,1,1.582,"",NA,NA,NA
"8301","mill","feast",10,1,79,4.86,12,0.3,0,0,1,3.422,"",NA,NA,NA
"8301","find","clown",11,1,84,3.344,34,0.85,0,1,0,1.368,"",NA,NA,NA
"8301","bullet","walkway",12,1,93,6.737,23,0.575,1,1,1,5.085,"walkway",1,NA,64.919
"8301","biology","temper",13,1,89,2.61,37,0.925,1,0,0,1.417,"clear",0,NA,60.273
"8301","calf","annoy",14,1,88,2.492,38,0.95,0,1,0,1.368,"",NA,NA,NA
"8301","caring","skirt",15,1,90,3.608,26,0.65,1,0,0,1.622,"skirt",1,NA,35.139
"8301","bleach","ruin",16,1,90,8.567,11,0.275,1,1,1,3.912,"ruin",1,NA,47.918
"8301","nerve","bumper",17,1,87,2.736,8,0.2,0,1,0,1.944,"",NA,NA,NA
"8301","shrink","mafia",18,1,80,3.422,16,0.4,0,0,1,1.827,"",NA,NA,NA
"8301","bias","sirloin",19,1,78,3.109,28,0.7,0,1,0,2.074,"",NA,NA,NA
"8301","replace","roach",20,1,85,8.038,17,0.425,0,0,1,3.158,"",NA,NA,NA
"8301","capital","figure",21,1,92,5.905,24,0.6,1,1,1,2.58,"breach",0,NA,28.761
"8301","need","faucet",22,1,93,3.022,36,0.9,1,0,0,2.766,"faucet",1,NA,28.648
"8301","port","cinema",23,1,81,2.689,25,0.625,0,0,1,1.593,"",NA,NA,NA
"8301","rock","milk",24,1,90,7.042,19,0.475,1,1,1,1.515,"milk",1,NA,24.405
"8301","grip","beach",25,1,88,3.049,5,0.125,1,1,1,3.148,"beach",1,NA,25.353
"8301","link","crisis",26,1,91,2.777,30,0.75,1,0,0,5.945,"ready",0,NA,35.307
"8301","pea","bathtub",27,1,85,3.774,4,0.1,0,0,1,1.846,"",NA,NA,NA
"8301","glue","force",28,1,94,3.372,13,0.325,1,1,1,2.385,"force",1,NA,26.058
"8301","smother","surgery",29,1,85,9.427,35,0.875,0,0,1,1.897,"",NA,NA,NA
"8301","fee","chowder",30,1,93,3.636,7,0.175,1,0,0,1.339,"chowder",1,NA,27.259
"8301","bacon","feud",31,1,92,2.77,3,0.075,1,0,0,2.284,"meal",0,NA,57.07
"8301","forest","knob",32,1,84,9.181,29,0.725,0,1,0,3.177,"",NA,NA,NA
"8301","knock","otter",33,1,89,5.789,20,0.5,1,1,1,1.388,"fall",0,NA,4.851
"8301","plant","worm",34,1,90,4.898,10,0.25,1,1,1,3.5,"tree",0,NA,25.067
"8301","want","ascent",35,1,89,4.029,14,0.35,0,1,0,1.427,"",NA,NA,NA
"8301","fan","feature",36,1,93,2.688,6,0.15,1,0,0,2.298,"lock",0,NA,8.872
"8301","copy","bedroom",37,1,88,3.324,27,0.675,0,1,0,7.637,"",NA,NA,NA
"8301","prison","loaf",38,1,83,5.199,22,0.55,0,0,1,9.729,"",NA,NA,NA
"8301","risk","zero",39,1,95,2.922,39,0.975,1,0,0,1.476,"zero",1,NA,28.395
"8301","chicken","beet",40,1,89,2.715,32,0.8,0,1,0,1.368,"",NA,NA,NA
"8301","anger","decay",1,2,89,3.266,31,0.775,0,1,0,2.13,"",NA,NA,NA
"8301","plant","worm",2,2,90,4.898,10,0.25,1,1,1,3.5,"worm",1,NA,47.483
"8301","capital","figure",3,2,92,5.905,24,0.6,1,1,1,2.58,"money",0,NA,40.748
"8301","climax","saucer",4,2,92,3.354,9,0.225,1,0,0,2.111,"saucer",1,NA,22.428
"8301","bacon","feud",5,2,92,2.77,3,0.075,1,0,0,2.284,"milk",0,NA,1071.259
"8301","rock","milk",6,2,90,7.042,19,0.475,1,1,1,1.515,"milk",1,NA,46.132
"8301","mill","feast",7,2,79,4.86,12,0.3,0,0,1,3.422,"",NA,NA,NA
"8301","pork","emperor",8,2,89,3.9,33,0.825,1,1,1,1.691,"emperor",1,NA,51.122
"8301","collect","loyalty",9,2,95,4.86,1,0.025,1,1,1,2.59,"loyalty",1,NA,20.332
"8301","bias","sirloin",10,2,78,3.109,28,0.7,0,1,0,2.074,"",NA,NA,NA
"8301","caring","skirt",11,2,90,3.608,26,0.65,1,0,0,1.622,"skirt",1,NA,17.809
"8301","biology","temper",12,2,89,2.61,37,0.925,1,0,0,1.417,"grade",0,NA,6.287
"8301","link","crisis",13,2,91,2.777,30,0.75,1,0,0,5.945,"crisis",1,NA,49.027
