"subn","word1","word2","trial","list","jol","jolrt","jolrank","jolrankp","practice","honor","choice","choicert"
"1762","bias","sirloin",1,1,-99,-99,39,0.975,0,0,-99,-99
"1762","anger","decay",2,1,-99,-99,28,0.7,0,0,-99,-99
"1762","fee","chowder",3,1,-99,-99,34,0.85,0,1,-99,-99
"1762","bleach","ruin",4,1,-99,-99,12,0.3,1,1,-99,-99
"1762","pea","bathtub",5,1,-99,-99,18,0.45,0,0,-99,-99
"1762","calf","annoy",6,1,-99,-99,38,0.95,0,1,-99,-99
"1762","date","laugh",7,1,-99,-99,23,0.575,0,0,-99,-99
"1762","forest","knob",8,1,-99,-99,24,0.6,1,0,-99,-99
"1762","port","cinema",9,1,-99,-99,5,0.125,1,1,-99,-99
"1762","bullet","walkway",10,1,-99,-99,40,1,0,1,-99,-99
"1762","nerve","bumper",11,1,-99,-99,25,0.625,1,1,-99,-99
"1762","visit","glove",12,1,-99,-99,1,0.025,1,1,-99,-99
"1762","want","ascent",13,1,-99,-99,20,0.5,1,0,-99,-99
"1762","glue","force",14,1,-99,-99,27,0.675,1,1,-99,-99
"1762","climax","saucer",15,1,-99,-99,11,0.275,0,0,-99,-99
"1762","risk","zero",16,1,-99,-99,9,0.225,1,0,-99,-99
"1762","caring","skirt",17,1,-99,-99,2,0.05,1,1,-99,-99
"1762","shrink","mafia",18,1,-99,-99,29,0.725,0,1,-99,-99
"1762","smother","surgery",19,1,-99,-99,4,0.1,0,0,-99,-99
"1762","chicken","beet",20,1,-99,-99,17,0.425,0,0,-99,-99
"1762","capital","figure",21,1,-99,-99,10,0.25,1,1,-99,-99
"1762","mill","feast",22,1,-99,-99,21,0.525,1,1,-99,-99
"1762","prison","loaf",23,1,-99,-99,14,0.35,1,0,-99,-99
"1762","find","clown",24,1,-99,-99,8,0.2,1,1,-99,-99
"1762","rock","milk",25,1,-99,-99,36,0.9,0,1,-99,-99
"1762","knock","otter",26,1,-99,-99,22,0.55,1,0,-99,-99
"1762","pork","emperor",27,1,-99,-99,35,0.875,0,0,-99,-99
"1762","process","joker",28,1,-99,-99,6,0.15,1,0,-99,-99
"1762","plant","worm",29,1,-99,-99,3,0.075,0,1,-99,-99
"1762","fan","feature",30,1,-99,-99,31,0.775,0,1,-99,-99
"1762","remind","foam",31,1,-99,-99,33,0.825,0,0,-99,-99
"1762","banner","glide",32,1,-99,-99,15,0.375,1,0,-99,-99
"1762","collect","loyalty",33,1,-99,-99,13,0.325,1,1,-99,-99
"1762","link","crisis",34,1,-99,-99,30,0.75,0,1,-99,-99
"1762","bacon","feud",35,1,-99,-99,26,0.65,0,1,-99,-99
"1762","grip","beach",36,1,-99,-99,37,0.925,0,0,-99,-99
"1762","need","faucet",37,1,-99,-99,32,0.8,0,1,-99,-99
"1762","copy","bedroom",38,1,-99,-99,19,0.475,1,0,-99,-99
"1762","biology","temper",39,1,-99,-99,16,0.4,1,0,-99,-99
"1762","replace","roach",40,1,-99,-99,7,0.175,1,0,-99,-99
"1762","calf","annoy",1,2,-99,-99,38,0.95,0,1,-99,-99
"1762","prison","loaf",2,2,-99,-99,14,0.35,1,0,-99,-99
"1762","replace","roach",3,2,-99,-99,7,0.175,1,0,-99,-99
"1762","need","faucet",4,2,-99,-99,32,0.8,0,1,-99,-99
"1762","mill","feast",5,2,-99,-99,21,0.525,1,1,-99,-99
"1762","copy","bedroom",6,2,-99,-99,19,0.475,1,0,-99,-99
"1762","bacon","feud",7,2,-99,-99,26,0.65,0,1,-99,-99
"1762","capital","figure",8,2,-99,-99,10,0.25,1,1,-99,-99
"1762","want","ascent",9,2,-99,-99,20,0.5,1,0,-99,-99
"1762","rock","milk",10,2,-99,-99,36,0.9,0,1,-99,-99
"1762","fan","feature",11,2,-99,-99,31,0.775,0,1,-99,-99
"1762","bleach","ruin",12,2,-99,-99,12,0.3,1,1,-99,-99
"1762","collect","loyalty",13,2,-99,-99,13,0.325,1,1,-99,-99
"1762","caring","skirt",14,2,-99,-99,2,0.05,1,1,-99,-99
"1762","glue","force",15,2,-99,-99,27,0.675,1,1,-99,-99
"1762","nerve","bumper",16,2,-99,-99,25,0.625,1,1,-99,-99
"1762","visit","glove",17,2,-99,-99,1,0.025,1,1,-99,-99
"1762","anger","decay",18,2,-99,-99,28,0.7,0,0,-99,-99
"1762","remind","foam",19,2,-99,-99,33,0.825,0,0,-99,-99
"1762","grip","beach",20,2,-99,-99,37,0.925,0,0,-99,-99
"1762","fee","chowder",21,2,-99,-99,34,0.85,0,1,-99,-99
"1762","pork","emperor",22,2,-99,-99,35,0.875,0,0,-99,-99
"1762","bias","sirloin",23,2,-99,-99,39,0.975,0,0,-99,-99
"1762","port","cinema",24,2,-99,-99,5,0.125,1,1,-99,-99
"1762","chicken","beet",25,2,-99,-99,17,0.425,0,0,-99,-99
"1762","forest","knob",26,2,-99,-99,24,0.6,1,0,-99,-99
"1762","pea","bathtub",27,2,-99,-99,18,0.45,0,0,-99,-99
"1762","plant","worm",28,2,-99,-99,3,0.075,0,1,-99,-99
"1762","banner","glide",29,2,-99,-99,15,0.375,1,0,-99,-99
"1762","process","joker",30,2,-99,-99,6,0.15,1,0,-99,-99
"1762","knock","otter",31,2,-99,-99,22,0.55,1,0,-99,-99
"1762","shrink","mafia",32,2,-99,-99,29,0.725,0,1,-99,-99
"1762","find","clown",33,2,-99,-99,8,0.2,1,1,-99,-99
"1762","biology","temper",34,2,-99,-99,16,0.4,1,0,-99,-99
"1762","link","crisis",35,2,-99,-99,30,0.75,0,1,-99,-99
"1762","smother","surgery",36,2,-99,-99,4,0.1,0,0,-99,-99
"1762","risk","zero",37,2,-99,-99,9,0.225,1,0,-99,-99
"1762","climax","saucer",38,2,-99,-99,11,0.275,0,0,-99,-99
"1762","date","laugh",39,2,-99,-99,23,0.575,0,0,-99,-99
"1762","bullet","walkway",40,2,-99,-99,40,1,0,1,-99,-99
"1762","plant","worm",1,3,23,10.558,3,0.075,0,1,0,2.786
"1762","smother","surgery",2,3,77,4.83,4,0.1,0,0,1,7.871
"1762","port","cinema",3,3,1,4.573,5,0.125,1,1,1,1.839
"1762","process","joker",4,3,1,3.821,6,0.15,1,0,0,4.55
"1762","replace","roach",5,3,1,3.906,7,0.175,1,0,0,1.159
"1762","risk","zero",6,3,1,2.913,9,0.225,1,0,0,1.157
"1762","capital","figure",7,3,1,2.137,10,0.25,1,1,1,0.987
"1762","climax","saucer",8,3,100,2.583,11,0.275,0,0,1,1.417
"1762","bleach","ruin",9,3,1,3.021,12,0.3,1,1,1,2.397
"1762","prison","loaf",10,3,1,2.231,14,0.35,1,0,0,0.971
"1762","banner","glide",11,3,1,1.963,15,0.375,1,0,0,0.837
"1762","biology","temper",12,3,1,2.193,16,0.4,1,0,0,0.743
"1762","pea","bathtub",13,3,100,2.191,18,0.45,0,0,1,1.509
"1762","copy","bedroom",14,3,1,2.849,19,0.475,1,0,0,0.571
"1762","want","ascent",15,3,1,2.325,20,0.5,1,0,0,0.727
"1762","knock","otter",16,3,1,2.107,22,0.55,1,0,0,1.128
"1762","date","laugh",17,3,100,2.151,23,0.575,0,0,1,1.167
"1762","forest","knob",18,3,1,2.371,24,0.6,1,0,0,0.979
"1762","bacon","feud",19,3,1,2.191,26,0.65,0,1,0,1.157
"1762","shrink","mafia",20,3,1,2.199,29,0.725,0,1,0,2.177
"1762","link","crisis",21,3,3,2.731,30,0.75,0,1,0,1.331
"1762","fan","feature",22,3,1,7.181,31,0.775,0,1,0,0.727
"1762","need","faucet",23,3,1,2.395,32,0.8,0,1,0,1.049
"1762","fee","chowder",24,3,1,2.717,34,0.85,0,1,0,1.095
"1762","pork","emperor",25,3,100,2.491,35,0.875,0,0,1,1.197
"1762","rock","milk",26,3,1,1.909,36,0.9,0,1,0,0.673
"1762","calf","annoy",27,3,27,2.419,38,0.95,0,1,0,0.703
"1762","bias","sirloin",28,3,72,3.375,39,0.975,0,0,1,0.688
"1762","bullet","walkway",29,3,1,2.255,40,1,0,1,0,0.875
"1762","mill","feast",30,3,1,1.904,21,0.525,1,1,1,0.984
"1762","visit","glove",31,3,1,2.231,1,0.025,1,1,1,0.735
"1762","glue","force",32,3,1,1.683,27,0.675,1,1,1,0.719
"1762","anger","decay",33,3,100,2.765,28,0.7,0,0,1,0.679
"1762","caring","skirt",34,3,1,2.271,2,0.05,1,1,1,0.673
"1762","find","clown",35,3,1,1.754,8,0.2,1,1,1,0.617
"1762","collect","loyalty",36,3,1,3.679,13,0.325,1,1,1,0.525
"1762","chicken","beet",37,3,100,2.631,17,0.425,0,0,1,0.813
"1762","nerve","bumper",38,3,1,2.959,25,0.625,1,1,1,1.385
"1762","remind","foam",39,3,1,2.435,33,0.825,0,0,1,0.853
"1762","grip","beach",40,3,1,2.594,37,0.925,0,0,1,0.694
"1803","copy","bedroom",1,1,-99,-99,14,0.35,1,0,-99,-99
"1803","rock","milk",2,1,-99,-99,15,0.375,0,1,-99,-99
"1803","glue","force",3,1,-99,-99,4,0.1,0,1,-99,-99
"1803","chicken","beet",4,1,-99,-99,19,0.475,0,1,-99,-99
"1803","collect","loyalty",5,1,-99,-99,35,0.875,1,0,-99,-99
"1803","fan","feature",6,1,-99,-99,40,1,0,0,-99,-99
"1803","mill","feast",7,1,-99,-99,33,0.825,1,0,-99,-99
"1803","forest","knob",8,1,-99,-99,8,0.2,0,0,-99,-99
"1803","shrink","mafia",9,1,-99,-99,27,0.675,1,0,-99,-99
"1803","bias","sirloin",10,1,-99,-99,18,0.45,1,1,-99,-99
"1803","knock","otter",11,1,-99,-99,34,0.85,1,0,-99,-99
"1803","capital","figure",12,1,-99,-99,29,0.725,1,0,-99,-99
"1803","need","faucet",13,1,-99,-99,21,0.525,0,1,-99,-99
"1803","pea","bathtub",14,1,-99,-99,23,0.575,0,0,-99,-99
"1803","find","clown",15,1,-99,-99,26,0.65,0,1,-99,-99
"1803","link","crisis",16,1,-99,-99,10,0.25,0,0,-99,-99
"1803","climax","saucer",17,1,-99,-99,24,0.6,0,1,-99,-99
"1803","date","laugh",18,1,-99,-99,25,0.625,1,1,-99,-99
"1803","process","joker",19,1,-99,-99,36,0.9,1,0,-99,-99
"1803","pork","emperor",20,1,-99,-99,7,0.175,1,1,-99,-99
"1803","bleach","ruin",21,1,-99,-99,31,0.775,1,0,-99,-99
"1803","replace","roach",22,1,-99,-99,32,0.8,1,0,-99,-99
"1803","bullet","walkway",23,1,-99,-99,28,0.7,1,1,-99,-99
"1803","plant","worm",24,1,-99,-99,20,0.5,0,0,-99,-99
"1803","smother","surgery",25,1,-99,-99,17,0.425,1,1,-99,-99
"1803","remind","foam",26,1,-99,-99,16,0.4,0,0,-99,-99
"1803","caring","skirt",27,1,-99,-99,3,0.075,0,1,-99,-99
"1803","want","ascent",28,1,-99,-99,1,0.025,0,0,-99,-99
"1803","anger","decay",29,1,-99,-99,13,0.325,1,1,-99,-99
"1803","prison","loaf",30,1,-99,-99,38,0.95,1,1,-99,-99
"1803","banner","glide",31,1,-99,-99,9,0.225,0,1,-99,-99
"1803","visit","glove",32,1,-99,-99,22,0.55,0,1,-99,-99
"1803","calf","annoy",33,1,-99,-99,11,0.275,0,0,-99,-99
"1803","bacon","feud",34,1,-99,-99,39,0.975,0,0,-99,-99
"1803","port","cinema",35,1,-99,-99,6,0.15,0,0,-99,-99
"1803","nerve","bumper",36,1,-99,-99,5,0.125,0,1,-99,-99
"1803","fee","chowder",37,1,-99,-99,37,0.925,1,0,-99,-99
"1803","biology","temper",38,1,-99,-99,30,0.75,1,1,-99,-99
"1803","grip","beach",39,1,-99,-99,12,0.3,1,1,-99,-99
"1803","risk","zero",40,1,-99,-99,2,0.05,1,1,-99,-99
"1803","find","clown",1,2,-99,-99,26,0.65,0,1,-99,-99
"1803","link","crisis",2,2,-99,-99,10,0.25,0,0,-99,-99
"1803","replace","roach",3,2,-99,-99,32,0.8,1,0,-99,-99
"1803","prison","loaf",4,2,-99,-99,38,0.95,1,1,-99,-99
"1803","bullet","walkway",5,2,-99,-99,28,0.7,1,1,-99,-99
"1803","knock","otter",6,2,-99,-99,34,0.85,1,0,-99,-99
"1803","pork","emperor",7,2,-99,-99,7,0.175,1,1,-99,-99
"1803","port","cinema",8,2,-99,-99,6,0.15,0,0,-99,-99
"1803","capital","figure",9,2,-99,-99,29,0.725,1,0,-99,-99
"1803","bacon","feud",10,2,-99,-99,39,0.975,0,0,-99,-99
"1803","grip","beach",11,2,-99,-99,12,0.3,1,1,-99,-99
"1803","fan","feature",12,2,-99,-99,40,1,0,0,-99,-99
"1803","banner","glide",13,2,-99,-99,9,0.225,0,1,-99,-99
"1803","need","faucet",14,2,-99,-99,21,0.525,0,1,-99,-99
"1803","forest","knob",15,2,-99,-99,8,0.2,0,0,-99,-99
"1803","mill","feast",16,2,-99,-99,33,0.825,1,0,-99,-99
"1803","smother","surgery",17,2,-99,-99,17,0.425,1,1,-99,-99
"1803","climax","saucer",18,2,-99,-99,24,0.6,0,1,-99,-99
"1803","pea","bathtub",19,2,-99,-99,23,0.575,0,0,-99,-99
"1803","want","ascent",20,2,-99,-99,1,0.025,0,0,-99,-99
"1803","visit","glove",21,2,-99,-99,22,0.55,0,1,-99,-99
"1803","plant","worm",22,2,-99,-99,20,0.5,0,0,-99,-99
"1803","process","joker",23,2,-99,-99,36,0.9,1,0,-99,-99
"1803","shrink","mafia",24,2,-99,-99,27,0.675,1,0,-99,-99
"1803","date","laugh",25,2,-99,-99,25,0.625,1,1,-99,-99
"1803","caring","skirt",26,2,-99,-99,3,0.075,0,1,-99,-99
"1803","anger","decay",27,2,-99,-99,13,0.325,1,1,-99,-99
"1803","bleach","ruin",28,2,-99,-99,31,0.775,1,0,-99,-99
"1803","glue","force",29,2,-99,-99,4,0.1,0,1,-99,-99
"1803","risk","zero",30,2,-99,-99,2,0.05,1,1,-99,-99
"1803","chicken","beet",31,2,-99,-99,19,0.475,0,1,-99,-99
"1803","nerve","bumper",32,2,-99,-99,5,0.125,0,1,-99,-99
"1803","calf","annoy",33,2,-99,-99,11,0.275,0,0,-99,-99
"1803","bias","sirloin",34,2,-99,-99,18,0.45,1,1,-99,-99
"1803","copy","bedroom",35,2,-99,-99,14,0.35,1,0,-99,-99
"1803","remind","foam",36,2,-99,-99,16,0.4,0,0,-99,-99
"1803","rock","milk",37,2,-99,-99,15,0.375,0,1,-99,-99
"1803","collect","loyalty",38,2,-99,-99,35,0.875,1,0,-99,-99
"1803","biology","temper",39,2,-99,-99,30,0.75,1,1,-99,-99
"1803","fee","chowder",40,2,-99,-99,37,0.925,1,0,-99,-99
"1803","risk","zero",1,3,100,20.909,2,0.05,1,1,1,8.589
"1803","caring","skirt",2,3,1,11.046,3,0.075,0,1,0,2.775
"1803","glue","force",3,3,1,6.543,4,0.1,0,1,0,2.023
"1803","nerve","bumper",4,3,1,5.015,5,0.125,0,1,0,0.83
"1803","banner","glide",5,3,1,2.487,9,0.225,0,1,0,3.911
"1803","grip","beach",6,3,100,9.647,12,0.3,1,1,1,1.247
"1803","anger","decay",7,3,100,5.758,13,0.325,1,1,1,1.071
"1803","copy","bedroom",8,3,25,10.375,14,0.35,1,0,0,1.303
"1803","rock","milk",9,3,1,7.663,15,0.375,0,1,0,1.064
"1803","smother","surgery",10,3,21,18.95,17,0.425,1,1,1,1.223
"1803","bias","sirloin",11,3,25,5.255,18,0.45,1,1,1,5.207
"1803","chicken","beet",12,3,1,19.031,19,0.475,0,1,0,0.83
"1803","need","faucet",13,3,1,4.047,21,0.525,0,1,0,1.276
"1803","visit","glove",14,3,1,6.543,22,0.55,0,1,0,1.072
"1803","climax","saucer",15,3,1,13.182,24,0.6,0,1,0,0.839
"1803","date","laugh",16,3,72,6.143,25,0.625,1,1,1,0.999
"1803","find","clown",17,3,1,3.567,26,0.65,0,1,0,1.839
"1803","shrink","mafia",18,3,1,6.063,27,0.675,1,0,0,1.159
"1803","capital","figure",19,3,1,8.247,29,0.725,1,0,0,1.263
"1803","biology","temper",20,3,74,11.111,30,0.75,1,1,1,0.912
"1803","bleach","ruin",21,3,1,16.086,31,0.775,1,0,0,1.095
"1803","replace","roach",22,3,1,3.127,32,0.8,1,0,0,1.247
"1803","mill","feast",23,3,2,2.983,33,0.825,1,0,0,1.423
"1803","knock","otter",24,3,1,3.617,34,0.85,1,0,0,1.285
"1803","collect","loyalty",25,3,1,15.527,35,0.875,1,0,0,0.599
"1803","process","joker",26,3,1,6.591,36,0.9,1,0,0,0.734
"1803","fee","chowder",27,3,1,7.712,37,0.925,1,0,0,0.838
"1803","prison","loaf",28,3,100,5.367,38,0.95,1,1,1,1.624
"1803","bacon","feud",29,3,1,2.91,39,0.975,0,0,1,2.863
"1803","fan","feature",30,3,1,2.615,40,1,0,0,1,0.767
"1803","pea","bathtub",31,3,1,2.231,23,0.575,0,0,1,0.679
"1803","link","crisis",32,3,1,1.983,10,0.25,0,0,1,0.719
"1803","forest","knob",33,3,1,2.079,8,0.2,0,0,1,0.703
"1803","calf","annoy",34,3,1,2.015,11,0.275,0,0,1,0.711
"1803","remind","foam",35,3,1,2.039,16,0.4,0,0,1,0.798
"1803","plant","worm",36,3,1,2.799,20,0.5,0,0,1,0.695
"1803","want","ascent",37,3,1,1.768,1,0.025,0,0,1,0.814
"1803","port","cinema",38,3,1,2.072,6,0.15,0,0,1,0.888
"1803","pork","emperor",39,3,1,2.151,7,0.175,1,1,1,0.839
"1803","bullet","walkway",40,3,1,4.6,28,0.7,1,1,1,0.727
"2237","climax","saucer",1,1,-99,-99,4,0.1,1,1,-99,-99
"2237","nerve","bumper",2,1,-99,-99,33,0.825,0,0,-99,-99
"2237","process","joker",3,1,-99,-99,39,0.975,0,0,-99,-99
"2237","chicken","beet",4,1,-99,-99,26,0.65,1,1,-99,-99
"2237","collect","loyalty",5,1,-99,-99,3,0.075,0,0,-99,-99
"2237","prison","loaf",6,1,-99,-99,16,0.4,0,0,-99,-99
"2237","shrink","mafia",7,1,-99,-99,27,0.675,1,0,-99,-99
"2237","bias","sirloin",8,1,-99,-99,10,0.25,0,0,-99,-99
"2237","date","laugh",9,1,-99,-99,6,0.15,1,0,-99,-99
"2237","visit","glove",10,1,-99,-99,18,0.45,0,1,-99,-99
"2237","copy","bedroom",11,1,-99,-99,22,0.55,0,1,-99,-99
"2237","bacon","feud",12,1,-99,-99,31,0.775,1,0,-99,-99
"2237","risk","zero",13,1,-99,-99,2,0.05,0,0,-99,-99
"2237","pea","bathtub",14,1,-99,-99,30,0.75,1,1,-99,-99
"2237","caring","skirt",15,1,-99,-99,8,0.2,0,1,-99,-99
"2237","calf","annoy",16,1,-99,-99,1,0.025,1,1,-99,-99
"2237","want","ascent",17,1,-99,-99,23,0.575,0,1,-99,-99
"2237","replace","roach",18,1,-99,-99,36,0.9,1,0,-99,-99
"2237","forest","knob",19,1,-99,-99,32,0.8,1,0,-99,-99
"2237","grip","beach",20,1,-99,-99,14,0.35,0,1,-99,-99
"2237","knock","otter",21,1,-99,-99,17,0.425,0,0,-99,-99
"2237","port","cinema",22,1,-99,-99,15,0.375,1,1,-99,-99
"2237","rock","milk",23,1,-99,-99,24,0.6,1,1,-99,-99
"2237","need","faucet",24,1,-99,-99,11,0.275,0,1,-99,-99
"2237","remind","foam",25,1,-99,-99,12,0.3,1,1,-99,-99
"2237","link","crisis",26,1,-99,-99,5,0.125,1,0,-99,-99
"2237","biology","temper",27,1,-99,-99,20,0.5,0,1,-99,-99
"2237","fee","chowder",28,1,-99,-99,9,0.225,0,1,-99,-99
"2237","banner","glide",29,1,-99,-99,38,0.95,0,0,-99,-99
"2237","glue","force",30,1,-99,-99,34,0.85,1,0,-99,-99
"2237","fan","feature",31,1,-99,-99,7,0.175,0,1,-99,-99
"2237","bleach","ruin",32,1,-99,-99,25,0.625,1,1,-99,-99
"2237","anger","decay",33,1,-99,-99,29,0.725,1,0,-99,-99
"2237","capital","figure",34,1,-99,-99,28,0.7,1,0,-99,-99
"2237","plant","worm",35,1,-99,-99,40,1,0,0,-99,-99
"2237","bullet","walkway",36,1,-99,-99,35,0.875,1,1,-99,-99
"2237","mill","feast",37,1,-99,-99,37,0.925,1,0,-99,-99
"2237","find","clown",38,1,-99,-99,21,0.525,0,0,-99,-99
"2237","smother","surgery",39,1,-99,-99,13,0.325,0,1,-99,-99
"2237","pork","emperor",40,1,-99,-99,19,0.475,1,1,-99,-99
"2237","knock","otter",1,2,-99,-99,17,0.425,0,0,-99,-99
"2237","replace","roach",2,2,-99,-99,36,0.9,1,0,-99,-99
"2237","shrink","mafia",3,2,-99,-99,27,0.675,1,0,-99,-99
"2237","bullet","walkway",4,2,-99,-99,35,0.875,1,1,-99,-99
"2237","find","clown",5,2,-99,-99,21,0.525,0,0,-99,-99
"2237","plant","worm",6,2,-99,-99,40,1,0,0,-99,-99
"2237","grip","beach",7,2,-99,-99,14,0.35,0,1,-99,-99
"2237","calf","annoy",8,2,-99,-99,1,0.025,1,1,-99,-99
"2237","mill","feast",9,2,-99,-99,37,0.925,1,0,-99,-99
"2237","climax","saucer",10,2,-99,-99,4,0.1,1,1,-99,-99
"2237","prison","loaf",11,2,-99,-99,16,0.4,0,0,-99,-99
"2237","bacon","feud",12,2,-99,-99,31,0.775,1,0,-99,-99
"2237","link","crisis",13,2,-99,-99,5,0.125,1,0,-99,-99
"2237","capital","figure",14,2,-99,-99,28,0.7,1,0,-99,-99
"2237","bleach","ruin",15,2,-99,-99,25,0.625,1,1,-99,-99
"2237","anger","decay",16,2,-99,-99,29,0.725,1,0,-99,-99
"2237","nerve","bumper",17,2,-99,-99,33,0.825,0,0,-99,-99
"2237","rock","milk",18,2,-99,-99,24,0.6,1,1,-99,-99
"2237","chicken","beet",19,2,-99,-99,26,0.65,1,1,-99,-99
"2237","pea","bathtub",20,2,-99,-99,30,0.75,1,1,-99,-99
"2237","caring","skirt",21,2,-99,-99,8,0.2,0,1,-99,-99
"2237","collect","loyalty",22,2,-99,-99,3,0.075,0,0,-99,-99
"2237","fan","feature",23,2,-99,-99,7,0.175,0,1,-99,-99
"2237","bias","sirloin",24,2,-99,-99,10,0.25,0,0,-99,-99
"2237","remind","foam",25,2,-99,-99,12,0.3,1,1,-99,-99
"2237","fee","chowder",26,2,-99,-99,9,0.225,0,1,-99,-99
"2237","biology","temper",27,2,-99,-99,20,0.5,0,1,-99,-99
"2237","pork","emperor",28,2,-99,-99,19,0.475,1,1,-99,-99
"2237","want","ascent",29,2,-99,-99,23,0.575,0,1,-99,-99
"2237","smother","surgery",30,2,-99,-99,13,0.325,0,1,-99,-99
"2237","date","laugh",31,2,-99,-99,6,0.15,1,0,-99,-99
"2237","glue","force",32,2,-99,-99,34,0.85,1,0,-99,-99
"2237","banner","glide",33,2,-99,-99,38,0.95,0,0,-99,-99
"2237","risk","zero",34,2,-99,-99,2,0.05,0,0,-99,-99
"2237","forest","knob",35,2,-99,-99,32,0.8,1,0,-99,-99
"2237","copy","bedroom",36,2,-99,-99,22,0.55,0,1,-99,-99
"2237","visit","glove",37,2,-99,-99,18,0.45,0,1,-99,-99
"2237","port","cinema",38,2,-99,-99,15,0.375,1,1,-99,-99
"2237","process","joker",39,2,-99,-99,39,0.975,0,0,-99,-99
"2237","need","faucet",40,2,-99,-99,11,0.275,0,1,-99,-99
"2237","climax","saucer",1,3,50,11.446,4,0.1,1,1,1,19.367
"2237","link","crisis",2,3,35,24.775,5,0.125,1,0,0,2.182
"2237","date","laugh",3,3,5,12.902,6,0.15,1,0,0,0.896
"2237","fan","feature",4,3,1,4.783,7,0.175,0,1,0,1.207
"2237","caring","skirt",5,3,1,5.102,8,0.2,0,1,0,1.342
"2237","fee","chowder",6,3,1,3.216,9,0.225,0,1,0,1.191
"2237","need","faucet",7,3,1,2.871,11,0.275,0,1,0,1.44
"2237","smother","surgery",8,3,1,5.76,13,0.325,0,1,0,1.119
"2237","grip","beach",9,3,1,4.96,14,0.35,0,1,0,1.439
"2237","port","cinema",10,3,20,8.136,15,0.375,1,1,1,2.199
"2237","visit","glove",11,3,1,3.528,18,0.45,0,1,0,0.776
"2237","pork","emperor",12,3,35,10.191,19,0.475,1,1,1,0.944
"2237","biology","temper",13,3,1,6.976,20,0.5,0,1,0,1.143
"2237","copy","bedroom",14,3,1,3.534,22,0.55,0,1,0,0.767
"2237","want","ascent",15,3,1,4.28,23,0.575,0,1,0,0.935
"2237","rock","milk",16,3,30,6.528,24,0.6,1,1,1,1.68
"2237","chicken","beet",17,3,10,15.454,26,0.65,1,1,1,0.967
"2237","shrink","mafia",18,3,1,2.911,27,0.675,1,0,0,0.696
"2237","capital","figure",19,3,1,5.679,28,0.7,1,0,0,1.087
"2237","anger","decay",20,3,1,2.871,29,0.725,1,0,0,1.159
"2237","pea","bathtub",21,3,30,11.176,30,0.75,1,1,1,0.832
"2237","bacon","feud",22,3,1,5.696,31,0.775,1,0,0,0.672
"2237","forest","knob",23,3,1,6.759,32,0.8,1,0,0,4.168
"2237","glue","force",24,3,1,6.983,34,0.85,1,0,0,1.046
"2237","bullet","walkway",25,3,10,11.072,35,0.875,1,1,1,1.104
"2237","replace","roach",26,3,1,3.648,36,0.9,1,0,0,1.04
"2237","mill","feast",27,3,1,2.863,37,0.925,1,0,0,0.992
"2237","banner","glide",28,3,1,4.96,38,0.95,0,0,1,1.536
"2237","process","joker",29,3,1,8.166,39,0.975,0,0,1,1.452
"2237","plant","worm",30,3,1,2.394,40,1,0,0,1,0.864
"2237","collect","loyalty",31,3,1,2.136,3,0.075,0,0,1,0.76
"2237","knock","otter",32,3,1,1.872,17,0.425,0,0,1,1.856
"2237","bleach","ruin",33,3,10,11.447,25,0.625,1,1,1,0.792
"2237","nerve","bumper",34,3,1,2.774,33,0.825,0,0,1,1.031
"2237","bias","sirloin",35,3,1,4.888,10,0.25,0,0,1,0.615
"2237","prison","loaf",36,3,1,3.207,16,0.4,0,0,1,0.887
"2237","find","clown",37,3,1,2.182,21,0.525,0,0,1,0.959
"2237","risk","zero",38,3,1,2.64,2,0.05,0,0,1,0.848
"2237","remind","foam",39,3,1,2.055,12,0.3,1,1,1,0.864
"2237","calf","annoy",40,3,1,7.04,1,0.025,1,1,1,0.847
"3109","shrink","mafia",1,1,-99,-99,29,0.725,1,1,-99,-99
"3109","banner","glide",2,1,-99,-99,30,0.75,1,0,-99,-99
"3109","smother","surgery",3,1,-99,-99,38,0.95,1,0,-99,-99
"3109","mill","feast",4,1,-99,-99,15,0.375,1,1,-99,-99
"3109","climax","saucer",5,1,-99,-99,2,0.05,1,0,-99,-99
"3109","anger","decay",6,1,-99,-99,39,0.975,0,1,-99,-99
"3109","knock","otter",7,1,-99,-99,26,0.65,0,1,-99,-99
"3109","want","ascent",8,1,-99,-99,14,0.35,1,0,-99,-99
"3109","plant","worm",9,1,-99,-99,4,0.1,1,0,-99,-99
"3109","fan","feature",10,1,-99,-99,11,0.275,1,1,-99,-99
"3109","risk","zero",11,1,-99,-99,10,0.25,0,1,-99,-99
"3109","bias","sirloin",12,1,-99,-99,37,0.925,0,1,-99,-99
"3109","prison","loaf",13,1,-99,-99,27,0.675,0,0,-99,-99
"3109","bullet","walkway",14,1,-99,-99,9,0.225,0,0,-99,-99
"3109","pork","emperor",15,1,-99,-99,6,0.15,0,0,-99,-99
"3109","grip","beach",16,1,-99,-99,21,0.525,0,0,-99,-99
"3109","glue","force",17,1,-99,-99,28,0.7,0,0,-99,-99
"3109","need","faucet",18,1,-99,-99,40,1,0,1,-99,-99
"3109","remind","foam",19,1,-99,-99,31,0.775,0,1,-99,-99
"3109","visit","glove",20,1,-99,-99,24,0.6,0,1,-99,-99
"3109","fee","chowder",21,1,-99,-99,12,0.3,1,1,-99,-99
"3109","rock","milk",22,1,-99,-99,25,0.625,0,0,-99,-99
"3109","forest","knob",23,1,-99,-99,23,0.575,0,0,-99,-99
"3109","nerve","bumper",24,1,-99,-99,22,0.55,1,0,-99,-99
"3109","pea","bathtub",25,1,-99,-99,36,0.9,1,0,-99,-99
"3109","bacon","feud",26,1,-99,-99,34,0.85,1,1,-99,-99
"3109","calf","annoy",27,1,-99,-99,20,0.5,1,0,-99,-99
"3109","link","crisis",28,1,-99,-99,35,0.875,1,1,-99,-99
"3109","find","clown",29,1,-99,-99,1,0.025,0,0,-99,-99
"3109","port","cinema",30,1,-99,-99,18,0.45,0,0,-99,-99
"3109","caring","skirt",31,1,-99,-99,7,0.175,1,1,-99,-99
"3109","collect","loyalty",32,1,-99,-99,8,0.2,0,1,-99,-99
"3109","replace","roach",33,1,-99,-99,5,0.125,1,1,-99,-99
"3109","bleach","ruin",34,1,-99,-99,33,0.825,1,0,-99,-99
"3109","chicken","beet",35,1,-99,-99,13,0.325,1,1,-99,-99
"3109","biology","temper",36,1,-99,-99,17,0.425,0,1,-99,-99
"3109","process","joker",37,1,-99,-99,19,0.475,0,0,-99,-99
"3109","capital","figure",38,1,-99,-99,32,0.8,1,0,-99,-99
"3109","date","laugh",39,1,-99,-99,16,0.4,0,1,-99,-99
"3109","copy","bedroom",40,1,-99,-99,3,0.075,1,1,-99,-99
"3109","rock","milk",1,2,-99,-99,25,0.625,0,0,-99,-99
"3109","calf","annoy",2,2,-99,-99,20,0.5,1,0,-99,-99
"3109","capital","figure",3,2,-99,-99,32,0.8,1,0,-99,-99
"3109","mill","feast",4,2,-99,-99,15,0.375,1,1,-99,-99
"3109","glue","force",5,2,-99,-99,28,0.7,0,0,-99,-99
"3109","bacon","feud",6,2,-99,-99,34,0.85,1,1,-99,-99
"3109","anger","decay",7,2,-99,-99,39,0.975,0,1,-99,-99
"3109","smother","surgery",8,2,-99,-99,38,0.95,1,0,-99,-99
"3109","risk","zero",9,2,-99,-99,10,0.25,0,1,-99,-99
"3109","climax","saucer",10,2,-99,-99,2,0.05,1,0,-99,-99
"3109","find","clown",11,2,-99,-99,1,0.025,0,0,-99,-99
"3109","grip","beach",12,2,-99,-99,21,0.525,0,0,-99,-99
"3109","date","laugh",13,2,-99,-99,16,0.4,0,1,-99,-99
"3109","port","cinema",14,2,-99,-99,18,0.45,0,0,-99,-99
"3109","collect","loyalty",15,2,-99,-99,8,0.2,0,1,-99,-99
"3109","fan","feature",16,2,-99,-99,11,0.275,1,1,-99,-99
"3109","nerve","bumper",17,2,-99,-99,22,0.55,1,0,-99,-99
"3109","fee","chowder",18,2,-99,-99,12,0.3,1,1,-99,-99
"3109","bleach","ruin",19,2,-99,-99,33,0.825,1,0,-99,-99
"3109","copy","bedroom",20,2,-99,-99,3,0.075,1,1,-99,-99
"3109","process","joker",21,2,-99,-99,19,0.475,0,0,-99,-99
"3109","knock","otter",22,2,-99,-99,26,0.65,0,1,-99,-99
"3109","plant","worm",23,2,-99,-99,4,0.1,1,0,-99,-99
"3109","pea","bathtub",24,2,-99,-99,36,0.9,1,0,-99,-99
"3109","pork","emperor",25,2,-99,-99,6,0.15,0,0,-99,-99
"3109","visit","glove",26,2,-99,-99,24,0.6,0,1,-99,-99
"3109","replace","roach",27,2,-99,-99,5,0.125,1,1,-99,-99
"3109","bullet","walkway",28,2,-99,-99,9,0.225,0,0,-99,-99
"3109","caring","skirt",29,2,-99,-99,7,0.175,1,1,-99,-99
"3109","chicken","beet",30,2,-99,-99,13,0.325,1,1,-99,-99
"3109","remind","foam",31,2,-99,-99,31,0.775,0,1,-99,-99
"3109","forest","knob",32,2,-99,-99,23,0.575,0,0,-99,-99
"3109","shrink","mafia",33,2,-99,-99,29,0.725,1,1,-99,-99
"3109","link","crisis",34,2,-99,-99,35,0.875,1,1,-99,-99
"3109","banner","glide",35,2,-99,-99,30,0.75,1,0,-99,-99
"3109","need","faucet",36,2,-99,-99,40,1,0,1,-99,-99
"3109","bias","sirloin",37,2,-99,-99,37,0.925,0,1,-99,-99
"3109","biology","temper",38,2,-99,-99,17,0.425,0,1,-99,-99
"3109","want","ascent",39,2,-99,-99,14,0.35,1,0,-99,-99
"3109","prison","loaf",40,2,-99,-99,27,0.675,0,0,-99,-99
"3109","find","clown",1,3,1,7.675,1,0.025,0,0,1,12.477
"3109","pea","bathtub",2,3,56,22.738,36,0.9,1,0,0,10.239
"3109","chicken","beet",3,3,92,7.356,13,0.325,1,1,1,3.704
"3109","want","ascent",4,3,82,18.112,14,0.35,1,0,0,2.148
"3109","caring","skirt",5,3,99,4.454,7,0.175,1,1,1,1.25
"3109","rock","milk",6,3,71,3.981,25,0.625,0,0,1,2.091
"3109","collect","loyalty",7,3,17,4.059,8,0.2,0,1,0,1.485
"3109","remind","foam",8,3,20,3.452,31,0.775,0,1,0,2.144
"3109","fee","chowder",9,3,93,4.311,12,0.3,1,1,1,2.53
"3109","banner","glide",10,3,78,3.453,30,0.75,1,0,0,1.983
"3109","calf","annoy",11,3,32,4.756,20,0.5,1,0,0,2.09
"3109","biology","temper",12,3,27,7.128,17,0.425,0,1,0,1.33
"3109","date","laugh",13,3,16,3.388,16,0.4,0,1,0,1.371
"3109","knock","otter",14,3,16,3.987,26,0.65,0,1,0,1.04
"3109","fan","feature",15,3,76,2.683,11,0.275,1,1,1,1.393
"3109","climax","saucer",16,3,31,3.202,2,0.05,1,0,0,1.02
"3109","nerve","bumper",17,3,29,2.784,22,0.55,1,0,0,1.541
"3109","process","joker",18,3,71,3.584,19,0.475,0,0,1,1.207
"3109","forest","knob",19,3,65,2.656,23,0.575,0,0,1,1.098
"3109","anger","decay",20,3,28,4.272,39,0.975,0,1,0,1.448
"3109","grip","beach",21,3,69,2.942,21,0.525,0,0,1,1.087
"3109","pork","emperor",22,3,57,3.099,6,0.15,0,0,1,0.956
"3109","port","cinema",23,3,68,2.409,18,0.45,0,0,1,1.734
"3109","link","crisis",24,3,78,7.172,35,0.875,1,1,1,2.124
"3109","bias","sirloin",25,3,18,16.131,37,0.925,0,1,0,2.045
"3109","bleach","ruin",26,3,31,5.434,33,0.825,1,0,0,1.688
"3109","bacon","feud",27,3,86,3.592,34,0.85,1,1,1,1.079
"3109","mill","feast",28,3,81,2.923,15,0.375,1,1,1,2.121
"3109","capital","figure",29,3,78,3.217,32,0.8,1,0,0,1.529
"3109","risk","zero",30,3,27,2.971,10,0.25,0,1,0,1.301
"3109","visit","glove",31,3,26,3.759,24,0.6,0,1,0,1.714
"3109","shrink","mafia",32,3,76,4.196,29,0.725,1,1,1,1.985
"3109","smother","surgery",33,3,74,2.208,38,0.95,1,0,0,1.468
"3109","glue","force",34,3,74,3.083,28,0.7,0,0,1,1.184
"3109","plant","worm",35,3,72,2.387,4,0.1,1,0,0,1.155
"3109","need","faucet",36,3,9,5.165,40,1,0,1,0,0.932
"3109","prison","loaf",37,3,73,2.237,27,0.675,0,0,1,0.866
"3109","copy","bedroom",38,3,79,3.645,3,0.075,1,1,1,1.196
"3109","bullet","walkway",39,3,68,2.167,9,0.225,0,0,1,2.044
"3109","replace","roach",40,3,84,2.343,5,0.125,1,1,1,2.128
"4214","visit","glove",1,1,-99,-99,23,0.575,0,0,-99,-99
"4214","process","joker",2,1,-99,-99,25,0.625,0,1,-99,-99
"4214","smother","surgery",3,1,-99,-99,24,0.6,0,1,-99,-99
"4214","anger","decay",4,1,-99,-99,28,0.7,0,0,-99,-99
"4214","date","laugh",5,1,-99,-99,4,0.1,1,0,-99,-99
"4214","pork","emperor",6,1,-99,-99,31,0.775,0,0,-99,-99
"4214","bleach","ruin",7,1,-99,-99,33,0.825,1,1,-99,-99
"4214","nerve","bumper",8,1,-99,-99,21,0.525,0,1,-99,-99
"4214","mill","feast",9,1,-99,-99,9,0.225,0,0,-99,-99
"4214","pea","bathtub",10,1,-99,-99,11,0.275,1,0,-99,-99
"4214","forest","knob",11,1,-99,-99,32,0.8,1,1,-99,-99
"4214","grip","beach",12,1,-99,-99,10,0.25,0,1,-99,-99
"4214","copy","bedroom",13,1,-99,-99,8,0.2,1,0,-99,-99
"4214","want","ascent",14,1,-99,-99,14,0.35,0,1,-99,-99
"4214","chicken","beet",15,1,-99,-99,1,0.025,1,0,-99,-99
"4214","need","faucet",16,1,-99,-99,7,0.175,1,0,-99,-99
"4214","risk","zero",17,1,-99,-99,39,0.975,1,1,-99,-99
"4214","calf","annoy",18,1,-99,-99,26,0.65,0,0,-99,-99
"4214","plant","worm",19,1,-99,-99,19,0.475,0,1,-99,-99
"4214","find","clown",20,1,-99,-99,34,0.85,1,1,-99,-99
"4214","remind","foam",21,1,-99,-99,29,0.725,1,1,-99,-99
"4214","fee","chowder",22,1,-99,-99,2,0.05,1,1,-99,-99
"4214","collect","loyalty",23,1,-99,-99,38,0.95,0,0,-99,-99
"4214","climax","saucer",24,1,-99,-99,37,0.925,1,1,-99,-99
"4214","banner","glide",25,1,-99,-99,22,0.55,0,1,-99,-99
"4214","bullet","walkway",26,1,-99,-99,17,0.425,0,0,-99,-99
"4214","link","crisis",27,1,-99,-99,16,0.4,0,1,-99,-99
"4214","caring","skirt",28,1,-99,-99,27,0.675,1,1,-99,-99
"4214","port","cinema",29,1,-99,-99,18,0.45,0,1,-99,-99
"4214","biology","temper",30,1,-99,-99,30,0.75,1,1,-99,-99
"4214","glue","force",31,1,-99,-99,13,0.325,1,0,-99,-99
"4214","capital","figure",32,1,-99,-99,3,0.075,1,0,-99,-99
"4214","rock","milk",33,1,-99,-99,35,0.875,1,1,-99,-99
"4214","bias","sirloin",34,1,-99,-99,36,0.9,0,0,-99,-99
"4214","prison","loaf",35,1,-99,-99,20,0.5,0,0,-99,-99
"4214","bacon","feud",36,1,-99,-99,40,1,0,0,-99,-99
"4214","knock","otter",37,1,-99,-99,12,0.3,1,0,-99,-99
"4214","replace","roach",38,1,-99,-99,15,0.375,0,1,-99,-99
"4214","shrink","mafia",39,1,-99,-99,6,0.15,1,0,-99,-99
"4214","fan","feature",40,1,-99,-99,5,0.125,1,0,-99,-99
"4214","find","clown",1,2,-99,-99,34,0.85,1,1,-99,-99
"4214","link","crisis",2,2,-99,-99,16,0.4,0,1,-99,-99
"4214","risk","zero",3,2,-99,-99,39,0.975,1,1,-99,-99
"4214","bullet","walkway",4,2,-99,-99,17,0.425,0,0,-99,-99
"4214","forest","knob",5,2,-99,-99,32,0.8,1,1,-99,-99
"4214","caring","skirt",6,2,-99,-99,27,0.675,1,1,-99,-99
"4214","mill","feast",7,2,-99,-99,9,0.225,0,0,-99,-99
"4214","need","faucet",8,2,-99,-99,7,0.175,1,0,-99,-99
"4214","want","ascent",9,2,-99,-99,14,0.35,0,1,-99,-99
"4214","collect","loyalty",10,2,-99,-99,38,0.95,0,0,-99,-99
"4214","pork","emperor",11,2,-99,-99,31,0.775,0,0,-99,-99
"4214","banner","glide",12,2,-99,-99,22,0.55,0,1,-99,-99
"4214","replace","roach",13,2,-99,-99,15,0.375,0,1,-99,-99
"4214","fan","feature",14,2,-99,-99,5,0.125,1,0,-99,-99
"4214","biology","temper",15,2,-99,-99,30,0.75,1,1,-99,-99
"4214","prison","loaf",16,2,-99,-99,20,0.5,0,0,-99,-99
"4214","capital","figure",17,2,-99,-99,3,0.075,1,0,-99,-99
"4214","anger","decay",18,2,-99,-99,28,0.7,0,0,-99,-99
"4214","bias","sirloin",19,2,-99,-99,36,0.9,0,0,-99,-99
"4214","visit","glove",20,2,-99,-99,23,0.575,0,0,-99,-99
"4214","calf","annoy",21,2,-99,-99,26,0.65,0,0,-99,-99
"4214","chicken","beet",22,2,-99,-99,1,0.025,1,0,-99,-99
"4214","smother","surgery",23,2,-99,-99,24,0.6,0,1,-99,-99
"4214","nerve","bumper",24,2,-99,-99,21,0.525,0,1,-99,-99
"4214","rock","milk",25,2,-99,-99,35,0.875,1,1,-99,-99
"4214","port","cinema",26,2,-99,-99,18,0.45,0,1,-99,-99
"4214","bacon","feud",27,2,-99,-99,40,1,0,0,-99,-99
"4214","pea","bathtub",28,2,-99,-99,11,0.275,1,0,-99,-99
"4214","remind","foam",29,2,-99,-99,29,0.725,1,1,-99,-99
"4214","fee","chowder",30,2,-99,-99,2,0.05,1,1,-99,-99
"4214","date","laugh",31,2,-99,-99,4,0.1,1,0,-99,-99
"4214","copy","bedroom",32,2,-99,-99,8,0.2,1,0,-99,-99
"4214","bleach","ruin",33,2,-99,-99,33,0.825,1,1,-99,-99
"4214","plant","worm",34,2,-99,-99,19,0.475,0,1,-99,-99
"4214","process","joker",35,2,-99,-99,25,0.625,0,1,-99,-99
"4214","shrink","mafia",36,2,-99,-99,6,0.15,1,0,-99,-99
"4214","grip","beach",37,2,-99,-99,10,0.25,0,1,-99,-99
"4214","knock","otter",38,2,-99,-99,12,0.3,1,0,-99,-99
"4214","glue","force",39,2,-99,-99,13,0.325,1,0,-99,-99
"4214","climax","saucer",40,2,-99,-99,37,0.925,1,1,-99,-99
"4214","chicken","beet",1,3,1,38.453,1,0.025,1,0,0,18.197
"4214","fee","chowder",2,3,1,4.693,2,0.05,1,1,1,6.167
"4214","capital","figure",3,3,1,4.895,3,0.075,1,0,0,0.862
"4214","date","laugh",4,3,1,3.135,4,0.1,1,0,0,0.974
"4214","fan","feature",5,3,1,1.807,5,0.125,1,0,0,0.894
"4214","shrink","mafia",6,3,1,1.782,6,0.15,1,0,0,6.791
"4214","need","faucet",7,3,1,3.207,7,0.175,1,0,0,0.822
"4214","copy","bedroom",8,3,1,1.926,8,0.2,1,0,0,0.951
"4214","grip","beach",9,3,76,9.536,10,0.25,0,1,0,1.151
"4214","pea","bathtub",10,3,1,1.903,11,0.275,1,0,0,0.871
"4214","knock","otter",11,3,1,1.526,12,0.3,1,0,0,0.735
"4214","glue","force",12,3,1,1.374,13,0.325,1,0,0,0.886
"4214","want","ascent",13,3,1,1.966,14,0.35,0,1,0,1.109
"4214","replace","roach",14,3,1,1.279,15,0.375,0,1,0,0.71
"4214","link","crisis",15,3,1,12.254,16,0.4,0,1,0,1.087
"4214","port","cinema",16,3,1,2.334,18,0.45,0,1,0,0.727
"4214","plant","worm",17,3,100,10.286,19,0.475,0,1,0,1.238
"4214","nerve","bumper",18,3,1,1.99,21,0.525,0,1,0,0.718
"4214","banner","glide",19,3,1,1.576,22,0.55,0,1,0,0.718
"4214","smother","surgery",20,3,100,3.646,24,0.6,0,1,0,0.807
"4214","process","joker",21,3,1,1.774,25,0.625,0,1,0,0.822
"4214","caring","skirt",22,3,1,2.557,27,0.675,1,1,1,0.963
"4214","anger","decay",23,3,100,4.167,28,0.7,0,0,1,1.022
"4214","remind","foam",24,3,1,2.166,29,0.725,1,1,1,0.783
"4214","biology","temper",25,3,1,1.638,30,0.75,1,1,1,0.631
"4214","pork","emperor",26,3,100,2.502,31,0.775,0,0,1,0.67
"4214","forest","knob",27,3,1,5.638,32,0.8,1,1,1,0.934
"4214","bleach","ruin",28,3,1,2.983,33,0.825,1,1,1,0.614
"4214","find","clown",29,3,1,2.126,34,0.85,1,1,1,0.806
"4214","rock","milk",30,3,1,1.55,35,0.875,1,1,1,1.255
"4214","climax","saucer",31,3,1,1.846,37,0.925,1,1,1,0.91
"4214","risk","zero",32,3,1,1.742,39,0.975,1,1,1,0.68
"4214","bacon","feud",33,3,1,1.79,40,1,0,0,1,0.703
"4214","mill","feast",34,3,1,1.654,9,0.225,0,0,1,0.903
"4214","bullet","walkway",35,3,1,1.382,17,0.425,0,0,1,0.943
"4214","prison","loaf",36,3,100,3.366,20,0.5,0,0,1,0.558
"4214","visit","glove",37,3,1,1.526,23,0.575,0,0,1,0.718
"4214","calf","annoy",38,3,100,2.359,26,0.65,0,0,1,0.702
"4214","bias","sirloin",39,3,1,2.006,36,0.9,0,0,1,1.015
"4214","collect","loyalty",40,3,1,1.47,38,0.95,0,0,1,0.71
"5195","anger","decay",1,1,-99,-99,7,0.175,1,1,-99,-99
"5195","glue","force",2,1,-99,-99,15,0.375,0,0,-99,-99
"5195","collect","loyalty",3,1,-99,-99,33,0.825,1,0,-99,-99
"5195","mill","feast",4,1,-99,-99,30,0.75,0,0,-99,-99
"5195","fan","feature",5,1,-99,-99,5,0.125,0,1,-99,-99
"5195","want","ascent",6,1,-99,-99,37,0.925,1,0,-99,-99
"5195","port","cinema",7,1,-99,-99,25,0.625,0,1,-99,-99
"5195","visit","glove",8,1,-99,-99,20,0.5,1,1,-99,-99
"5195","biology","temper",9,1,-99,-99,11,0.275,1,1,-99,-99
"5195","need","faucet",10,1,-99,-99,17,0.425,1,0,-99,-99
"5195","calf","annoy",11,1,-99,-99,26,0.65,1,1,-99,-99
"5195","pea","bathtub",12,1,-99,-99,21,0.525,0,1,-99,-99
"5195","bullet","walkway",13,1,-99,-99,23,0.575,0,0,-99,-99
"5195","capital","figure",14,1,-99,-99,31,0.775,0,0,-99,-99
"5195","pork","emperor",15,1,-99,-99,14,0.35,1,0,-99,-99
"5195","forest","knob",16,1,-99,-99,12,0.3,1,0,-99,-99
"5195","risk","zero",17,1,-99,-99,6,0.15,1,0,-99,-99
"5195","copy","bedroom",18,1,-99,-99,3,0.075,1,0,-99,-99
"5195","rock","milk",19,1,-99,-99,13,0.325,1,1,-99,-99
"5195","remind","foam",20,1,-99,-99,40,1,0,0,-99,-99
"5195","chicken","beet",21,1,-99,-99,34,0.85,1,1,-99,-99
"5195","knock","otter",22,1,-99,-99,32,0.8,1,1,-99,-99
"5195","nerve","bumper",23,1,-99,-99,1,0.025,0,1,-99,-99
"5195","grip","beach",24,1,-99,-99,27,0.675,0,0,-99,-99
"5195","banner","glide",25,1,-99,-99,4,0.1,1,1,-99,-99
"5195","find","clown",26,1,-99,-99,28,0.7,0,1,-99,-99
"5195","date","laugh",27,1,-99,-99,36,0.9,0,1,-99,-99
"5195","caring","skirt",28,1,-99,-99,29,0.725,1,1,-99,-99
"5195","bias","sirloin",29,1,-99,-99,8,0.2,0,0,-99,-99
"5195","process","joker",30,1,-99,-99,9,0.225,0,0,-99,-99
"5195","bacon","feud",31,1,-99,-99,24,0.6,1,1,-99,-99
"5195","replace","roach",32,1,-99,-99,35,0.875,0,1,-99,-99
"5195","climax","saucer",33,1,-99,-99,10,0.25,0,1,-99,-99
"5195","smother","surgery",34,1,-99,-99,22,0.55,0,1,-99,-99
"5195","fee","chowder",35,1,-99,-99,38,0.95,0,1,-99,-99
"5195","bleach","ruin",36,1,-99,-99,19,0.475,1,0,-99,-99
"5195","link","crisis",37,1,-99,-99,18,0.45,0,0,-99,-99
"5195","prison","loaf",38,1,-99,-99,16,0.4,0,0,-99,-99
"5195","shrink","mafia",39,1,-99,-99,2,0.05,1,0,-99,-99
"5195","plant","worm",40,1,-99,-99,39,0.975,1,0,-99,-99
"5195","caring","skirt",1,2,-99,-99,29,0.725,1,1,-99,-99
"5195","fan","feature",2,2,-99,-99,5,0.125,0,1,-99,-99
"5195","link","crisis",3,2,-99,-99,18,0.45,0,0,-99,-99
"5195","biology","temper",4,2,-99,-99,11,0.275,1,1,-99,-99
"5195","risk","zero",5,2,-99,-99,6,0.15,1,0,-99,-99
"5195","nerve","bumper",6,2,-99,-99,1,0.025,0,1,-99,-99
"5195","port","cinema",7,2,-99,-99,25,0.625,0,1,-99,-99
"5195","grip","beach",8,2,-99,-99,27,0.675,0,0,-99,-99
"5195","plant","worm",9,2,-99,-99,39,0.975,1,0,-99,-99
"5195","date","laugh",10,2,-99,-99,36,0.9,0,1,-99,-99
"5195","bullet","walkway",11,2,-99,-99,23,0.575,0,0,-99,-99
"5195","want","ascent",12,2,-99,-99,37,0.925,1,0,-99,-99
"5195","chicken","beet",13,2,-99,-99,34,0.85,1,1,-99,-99
"5195","shrink","mafia",14,2,-99,-99,2,0.05,1,0,-99,-99
"5195","visit","glove",15,2,-99,-99,20,0.5,1,1,-99,-99
"5195","pea","bathtub",16,2,-99,-99,21,0.525,0,1,-99,-99
"5195","process","joker",17,2,-99,-99,9,0.225,0,0,-99,-99
"5195","rock","milk",18,2,-99,-99,13,0.325,1,1,-99,-99
"5195","mill","feast",19,2,-99,-99,30,0.75,0,0,-99,-99
"5195","replace","roach",20,2,-99,-99,35,0.875,0,1,-99,-99
"5195","climax","saucer",21,2,-99,-99,10,0.25,0,1,-99,-99
"5195","need","faucet",22,2,-99,-99,17,0.425,1,0,-99,-99
"5195","fee","chowder",23,2,-99,-99,38,0.95,0,1,-99,-99
"5195","bias","sirloin",24,2,-99,-99,8,0.2,0,0,-99,-99
"5195","capital","figure",25,2,-99,-99,31,0.775,0,0,-99,-99
"5195","copy","bedroom",26,2,-99,-99,3,0.075,1,0,-99,-99
"5195","anger","decay",27,2,-99,-99,7,0.175,1,1,-99,-99
"5195","glue","force",28,2,-99,-99,15,0.375,0,0,-99,-99
"5195","pork","emperor",29,2,-99,-99,14,0.35,1,0,-99,-99
"5195","find","clown",30,2,-99,-99,28,0.7,0,1,-99,-99
"5195","remind","foam",31,2,-99,-99,40,1,0,0,-99,-99
"5195","bacon","feud",32,2,-99,-99,24,0.6,1,1,-99,-99
"5195","prison","loaf",33,2,-99,-99,16,0.4,0,0,-99,-99
"5195","forest","knob",34,2,-99,-99,12,0.3,1,0,-99,-99
"5195","smother","surgery",35,2,-99,-99,22,0.55,0,1,-99,-99
"5195","banner","glide",36,2,-99,-99,4,0.1,1,1,-99,-99
"5195","calf","annoy",37,2,-99,-99,26,0.65,1,1,-99,-99
"5195","collect","loyalty",38,2,-99,-99,33,0.825,1,0,-99,-99
"5195","bleach","ruin",39,2,-99,-99,19,0.475,1,0,-99,-99
"5195","knock","otter",40,2,-99,-99,32,0.8,1,1,-99,-99
"5195","need","faucet",1,3,63,9.743,17,0.425,1,0,0,5.381
"5195","rock","milk",2,3,83,9.054,13,0.325,1,1,1,5.215
"5195","calf","annoy",3,3,82,6.975,26,0.65,1,1,1,3.607
"5195","prison","loaf",4,3,73,13.087,16,0.4,0,0,1,0.871
"5195","fan","feature",5,3,27,8.367,5,0.125,0,1,0,1.008
"5195","chicken","beet",6,3,83,2.118,34,0.85,1,1,1,1.087
"5195","link","crisis",7,3,74,6.231,18,0.45,0,0,1,0.766
"5195","caring","skirt",8,3,79,3.143,29,0.725,1,1,1,0.686
"5195","find","clown",9,3,42,8.751,28,0.7,0,1,0,0.862
"5195","process","joker",10,3,68,5.366,9,0.225,0,0,1,0.991
"5195","mill","feast",11,3,69,1.942,30,0.75,0,0,1,1.255
"5195","bacon","feud",12,3,89,2.696,24,0.6,1,1,1,0.623
"5195","nerve","bumper",13,3,21,3.479,1,0.025,0,1,0,0.581
"5195","knock","otter",14,3,87,2.536,32,0.8,1,1,1,1.568
"5195","capital","figure",15,3,70,2.71,31,0.775,0,0,1,0.632
"5195","climax","saucer",16,3,23,2.549,10,0.25,0,1,0,0.655
"5195","pea","bathtub",17,3,13,2.223,21,0.525,0,1,0,0.695
"5195","replace","roach",18,3,32,3.135,35,0.875,0,1,0,0.743
"5195","biology","temper",19,3,88,2.591,11,0.275,1,1,1,1.847
"5195","grip","beach",20,3,73,5.311,27,0.675,0,0,1,0.783
"5195","glue","force",21,3,68,6.176,15,0.375,0,0,1,0.583
"5195","banner","glide",22,3,74,4.383,4,0.1,1,1,1,0.703
"5195","visit","glove",23,3,74,5.111,20,0.5,1,1,1,0.927
"5195","collect","loyalty",24,3,48,9.192,33,0.825,1,0,0,0.759
"5195","anger","decay",25,3,81,8.719,7,0.175,1,1,1,2.928
"5195","smother","surgery",26,3,22,9.448,22,0.55,0,1,0,0.623
"5195","bullet","walkway",27,3,69,4.912,23,0.575,0,0,1,0.59
"5195","date","laugh",28,3,41,10.679,36,0.9,0,1,0,0.839
"5195","fee","chowder",29,3,37,7.607,38,0.95,0,1,0,0.607
"5195","plant","worm",30,3,42,9.383,39,0.975,1,0,0,0.743
"5195","bias","sirloin",31,3,65,7.543,8,0.2,0,0,1,0.711
"5195","remind","foam",32,3,64,5.703,40,1,0,0,1,0.655
"5195","want","ascent",33,3,73,4.911,37,0.925,1,0,0,5.334
"5195","port","cinema",34,3,29,2.983,25,0.625,0,1,0,0.743
"5195","copy","bedroom",35,3,68,1.774,3,0.075,1,0,0,0.687
"5195","shrink","mafia",36,3,75,2.423,2,0.05,1,0,0,0.991
"5195","risk","zero",37,3,80,1.671,6,0.15,1,0,0,0.703
"5195","pork","emperor",38,3,75,2.055,14,0.35,1,0,0,0.6
"5195","bleach","ruin",39,3,77,1.951,19,0.475,1,0,0,0.678
"5195","forest","knob",40,3,79,1.67,12,0.3,1,0,0,0.503
"5550","bullet","walkway",1,1,-99,-99,13,0.325,0,0,-99,-99
"5550","process","joker",2,1,-99,-99,11,0.275,1,0,-99,-99
"5550","bleach","ruin",3,1,-99,-99,31,0.775,0,0,-99,-99
"5550","forest","knob",4,1,-99,-99,28,0.7,0,0,-99,-99
"5550","fee","chowder",5,1,-99,-99,32,0.8,0,0,-99,-99
"5550","collect","loyalty",6,1,-99,-99,18,0.45,1,0,-99,-99
"5550","capital","figure",7,1,-99,-99,22,0.55,0,1,-99,-99
"5550","smother","surgery",8,1,-99,-99,29,0.725,0,1,-99,-99
"5550","visit","glove",9,1,-99,-99,40,1,0,1,-99,-99
"5550","pork","emperor",10,1,-99,-99,10,0.25,0,0,-99,-99
"5550","bias","sirloin",11,1,-99,-99,26,0.65,0,1,-99,-99
"5550","calf","annoy",12,1,-99,-99,38,0.95,1,1,-99,-99
"5550","copy","bedroom",13,1,-99,-99,37,0.925,1,0,-99,-99
"5550","want","ascent",14,1,-99,-99,12,0.3,0,1,-99,-99
"5550","nerve","bumper",15,1,-99,-99,6,0.15,1,1,-99,-99
"5550","rock","milk",16,1,-99,-99,9,0.225,1,1,-99,-99
"5550","mill","feast",17,1,-99,-99,16,0.4,1,1,-99,-99
"5550","link","crisis",18,1,-99,-99,19,0.475,0,1,-99,-99
"5550","glue","force",19,1,-99,-99,33,0.825,1,1,-99,-99
"5550","need","faucet",20,1,-99,-99,39,0.975,1,0,-99,-99
"5550","find","clown",21,1,-99,-99,24,0.6,1,0,-99,-99
"5550","anger","decay",22,1,-99,-99,21,0.525,0,1,-99,-99
"5550","grip","beach",23,1,-99,-99,8,0.2,1,0,-99,-99
"5550","pea","bathtub",24,1,-99,-99,15,0.375,1,1,-99,-99
"5550","fan","feature",25,1,-99,-99,25,0.625,0,0,-99,-99
"5550","banner","glide",26,1,-99,-99,3,0.075,0,1,-99,-99
"5550","port","cinema",27,1,-99,-99,34,0.85,1,0,-99,-99
"5550","caring","skirt",28,1,-99,-99,5,0.125,0,1,-99,-99
"5550","climax","saucer",29,1,-99,-99,1,0.025,1,0,-99,-99
"5550","bacon","feud",30,1,-99,-99,20,0.5,1,1,-99,-99
"5550","prison","loaf",31,1,-99,-99,27,0.675,0,0,-99,-99
"5550","chicken","beet",32,1,-99,-99,35,0.875,0,0,-99,-99
"5550","biology","temper",33,1,-99,-99,2,0.05,1,1,-99,-99
"5550","shrink","mafia",34,1,-99,-99,7,0.175,0,1,-99,-99
"5550","risk","zero",35,1,-99,-99,30,0.75,0,0,-99,-99
"5550","replace","roach",36,1,-99,-99,4,0.1,1,1,-99,-99
"5550","plant","worm",37,1,-99,-99,14,0.35,0,0,-99,-99
"5550","date","laugh",38,1,-99,-99,23,0.575,1,1,-99,-99
"5550","remind","foam",39,1,-99,-99,17,0.425,1,0,-99,-99
"5550","knock","otter",40,1,-99,-99,36,0.9,1,0,-99,-99
"5550","climax","saucer",1,2,-99,-99,1,0.025,1,0,-99,-99
"5550","bleach","ruin",2,2,-99,-99,31,0.775,0,0,-99,-99
"5550","mill","feast",3,2,-99,-99,16,0.4,1,1,-99,-99
"5550","port","cinema",4,2,-99,-99,34,0.85,1,0,-99,-99
"5550","process","joker",5,2,-99,-99,11,0.275,1,0,-99,-99
"5550","bias","sirloin",6,2,-99,-99,26,0.65,0,1,-99,-99
"5550","collect","loyalty",7,2,-99,-99,18,0.45,1,0,-99,-99
"5550","glue","force",8,2,-99,-99,33,0.825,1,1,-99,-99
"5550","link","crisis",9,2,-99,-99,19,0.475,0,1,-99,-99
"5550","copy","bedroom",10,2,-99,-99,37,0.925,1,0,-99,-99
"5550","shrink","mafia",11,2,-99,-99,7,0.175,0,1,-99,-99
"5550","anger","decay",12,2,-99,-99,21,0.525,0,1,-99,-99
"5550","fee","chowder",13,2,-99,-99,32,0.8,0,0,-99,-99
"5550","need","faucet",14,2,-99,-99,39,0.975,1,0,-99,-99
"5550","biology","temper",15,2,-99,-99,2,0.05,1,1,-99,-99
"5550","date","laugh",16,2,-99,-99,23,0.575,1,1,-99,-99
"5550","smother","surgery",17,2,-99,-99,29,0.725,0,1,-99,-99
"5550","fan","feature",18,2,-99,-99,25,0.625,0,0,-99,-99
"5550","chicken","beet",19,2,-99,-99,35,0.875,0,0,-99,-99
"5550","pea","bathtub",20,2,-99,-99,15,0.375,1,1,-99,-99
"5550","caring","skirt",21,2,-99,-99,5,0.125,0,1,-99,-99
"5550","pork","emperor",22,2,-99,-99,10,0.25,0,0,-99,-99
"5550","bullet","walkway",23,2,-99,-99,13,0.325,0,0,-99,-99
"5550","prison","loaf",24,2,-99,-99,27,0.675,0,0,-99,-99
"5550","risk","zero",25,2,-99,-99,30,0.75,0,0,-99,-99
"5550","rock","milk",26,2,-99,-99,9,0.225,1,1,-99,-99
"5550","bacon","feud",27,2,-99,-99,20,0.5,1,1,-99,-99
"5550","knock","otter",28,2,-99,-99,36,0.9,1,0,-99,-99
"5550","grip","beach",29,2,-99,-99,8,0.2,1,0,-99,-99
"5550","forest","knob",30,2,-99,-99,28,0.7,0,0,-99,-99
"5550","find","clown",31,2,-99,-99,24,0.6,1,0,-99,-99
"5550","replace","roach",32,2,-99,-99,4,0.1,1,1,-99,-99
"5550","capital","figure",33,2,-99,-99,22,0.55,0,1,-99,-99
"5550","plant","worm",34,2,-99,-99,14,0.35,0,0,-99,-99
"5550","want","ascent",35,2,-99,-99,12,0.3,0,1,-99,-99
"5550","remind","foam",36,2,-99,-99,17,0.425,1,0,-99,-99
"5550","nerve","bumper",37,2,-99,-99,6,0.15,1,1,-99,-99
"5550","calf","annoy",38,2,-99,-99,38,0.95,1,1,-99,-99
"5550","visit","glove",39,2,-99,-99,40,1,0,1,-99,-99
"5550","banner","glide",40,2,-99,-99,3,0.075,0,1,-99,-99
"5550","mill","feast",1,3,70,6.449,16,0.4,1,1,1,5.246
"5550","anger","decay",2,3,15,6.67,21,0.525,0,1,0,1.391
"5550","date","laugh",3,3,80,11.735,23,0.575,1,1,1,1.599
"5550","risk","zero",4,3,90,8.463,30,0.75,0,0,1,7.231
"5550","glue","force",5,3,80,6.551,33,0.825,1,1,1,1.375
"5550","knock","otter",6,3,10,5.143,36,0.9,1,0,0,0.831
"5550","nerve","bumper",7,3,80,4.67,6,0.15,1,1,1,1.255
"5550","rock","milk",8,3,80,4.527,9,0.225,1,1,1,1.103
"5550","process","joker",9,3,10,4.223,11,0.275,1,0,0,1.047
"5550","plant","worm",10,3,90,4.774,14,0.35,0,0,1,1.287
"5550","find","clown",11,3,10,6.518,24,0.6,1,0,0,1.047
"5550","fan","feature",12,3,80,7.839,25,0.625,0,0,1,5.927
"5550","smother","surgery",13,3,30,5.159,29,0.725,0,1,0,1.862
"5550","port","cinema",14,3,10,5.599,34,0.85,1,0,0,0.96
"5550","chicken","beet",15,3,90,5.782,35,0.875,0,0,1,0.727
"5550","copy","bedroom",16,3,9,4.248,37,0.925,1,0,0,0.702
"5550","forest","knob",17,3,85,6.151,28,0.7,0,0,1,1.239
"5550","prison","loaf",18,3,89,5.559,27,0.675,0,0,1,1.191
"5550","biology","temper",19,3,75,7.575,2,0.05,1,1,1,1.191
"5550","bleach","ruin",20,3,84,6.919,31,0.775,0,0,1,1.047
"5550","need","faucet",21,3,9,5.111,39,0.975,1,0,0,0.823
"5550","bullet","walkway",22,3,85,4.535,13,0.325,0,0,1,0.935
"5550","climax","saucer",23,3,9,5.927,1,0.025,1,0,0,0.647
"5550","visit","glove",24,3,10,5.599,40,1,0,1,0,0.831
"5550","link","crisis",25,3,10,3.518,19,0.475,0,1,0,0.656
"5550","fee","chowder",26,3,85,4.758,32,0.8,0,0,1,1.104
"5550","banner","glide",27,3,14,9.91,3,0.075,0,1,0,0.647
"5550","caring","skirt",28,3,11,6.925,5,0.125,0,1,0,0.695
"5550","shrink","mafia",29,3,10,4.287,7,0.175,0,1,0,0.639
"5550","grip","beach",30,3,9,8.767,8,0.2,1,0,0,0.567
"5550","want","ascent",31,3,19,8.407,12,0.3,0,1,0,0.623
"5550","bacon","feud",32,3,79,6.431,20,0.5,1,1,1,0.671
"5550","remind","foam",33,3,9,3.559,17,0.425,1,0,0,0.687
"5550","capital","figure",34,3,10,5.767,22,0.55,0,1,0,0.655
"5550","bias","sirloin",35,3,10,3.711,26,0.65,0,1,0,0.727
"5550","collect","loyalty",36,3,9,4.135,18,0.45,1,0,0,0.695
"5550","replace","roach",37,3,10,6.287,4,0.1,1,1,1,1.271
"5550","pork","emperor",38,3,90,2.727,10,0.25,0,0,1,0.719
"5550","pea","bathtub",39,3,20,8.143,15,0.375,1,1,1,0.831
"5550","calf","annoy",40,3,70,5.783,38,0.95,1,1,1,0.711
"5753","smother","surgery",1,1,-99,-99,4,0.1,1,0,-99,-99
"5753","copy","bedroom",2,1,-99,-99,23,0.575,0,1,-99,-99
"5753","forest","knob",3,1,-99,-99,35,0.875,1,0,-99,-99
"5753","pea","bathtub",4,1,-99,-99,39,0.975,1,0,-99,-99
"5753","knock","otter",5,1,-99,-99,38,0.95,0,0,-99,-99
"5753","bullet","walkway",6,1,-99,-99,28,0.7,1,1,-99,-99
"5753","want","ascent",7,1,-99,-99,29,0.725,1,0,-99,-99
"5753","plant","worm",8,1,-99,-99,2,0.05,1,0,-99,-99
"5753","bleach","ruin",9,1,-99,-99,33,0.825,1,1,-99,-99
"5753","anger","decay",10,1,-99,-99,40,1,0,1,-99,-99
"5753","rock","milk",11,1,-99,-99,32,0.8,1,0,-99,-99
"5753","banner","glide",12,1,-99,-99,10,0.25,0,1,-99,-99
"5753","prison","loaf",13,1,-99,-99,25,0.625,0,1,-99,-99
"5753","visit","glove",14,1,-99,-99,26,0.65,0,0,-99,-99
"5753","bias","sirloin",15,1,-99,-99,19,0.475,0,0,-99,-99
"5753","calf","annoy",16,1,-99,-99,16,0.4,1,1,-99,-99
"5753","collect","loyalty",17,1,-99,-99,3,0.075,1,0,-99,-99
"5753","date","laugh",18,1,-99,-99,37,0.925,0,1,-99,-99
"5753","mill","feast",19,1,-99,-99,34,0.85,0,0,-99,-99
"5753","fan","feature",20,1,-99,-99,21,0.525,0,1,-99,-99
"5753","pork","emperor",21,1,-99,-99,24,0.6,1,1,-99,-99
"5753","caring","skirt",22,1,-99,-99,20,0.5,0,1,-99,-99
"5753","bacon","feud",23,1,-99,-99,31,0.775,1,1,-99,-99
"5753","climax","saucer",24,1,-99,-99,11,0.275,1,1,-99,-99
"5753","find","clown",25,1,-99,-99,27,0.675,0,0,-99,-99
"5753","biology","temper",26,1,-99,-99,17,0.425,0,1,-99,-99
"5753","capital","figure",27,1,-99,-99,6,0.15,0,0,-99,-99
"5753","process","joker",28,1,-99,-99,1,0.025,1,1,-99,-99
"5753","risk","zero",29,1,-99,-99,18,0.45,1,0,-99,-99
"5753","port","cinema",30,1,-99,-99,12,0.3,0,0,-99,-99
"5753","need","faucet",31,1,-99,-99,15,0.375,0,0,-99,-99
"5753","chicken","beet",32,1,-99,-99,5,0.125,1,1,-99,-99
"5753","grip","beach",33,1,-99,-99,36,0.9,0,1,-99,-99
"5753","glue","force",34,1,-99,-99,22,0.55,1,1,-99,-99
"5753","nerve","bumper",35,1,-99,-99,9,0.225,1,0,-99,-99
"5753","remind","foam",36,1,-99,-99,30,0.75,0,0,-99,-99
"5753","replace","roach",37,1,-99,-99,14,0.35,1,1,-99,-99
"5753","shrink","mafia",38,1,-99,-99,7,0.175,0,1,-99,-99
"5753","fee","chowder",39,1,-99,-99,13,0.325,0,0,-99,-99
"5753","link","crisis",40,1,-99,-99,8,0.2,1,0,-99,-99
"5753","prison","loaf",1,2,-99,-99,25,0.625,0,1,-99,-99
"5753","port","cinema",2,2,-99,-99,12,0.3,0,0,-99,-99
"5753","copy","bedroom",3,2,-99,-99,23,0.575,0,1,-99,-99
"5753","anger","decay",4,2,-99,-99,40,1,0,1,-99,-99
"5753","bleach","ruin",5,2,-99,-99,33,0.825,1,1,-99,-99
"5753","visit","glove",6,2,-99,-99,26,0.65,0,0,-99,-99
"5753","glue","force",7,2,-99,-99,22,0.55,1,1,-99,-99
"5753","collect","loyalty",8,2,-99,-99,3,0.075,1,0,-99,-99
"5753","nerve","bumper",9,2,-99,-99,9,0.225,1,0,-99,-99
"5753","date","laugh",10,2,-99,-99,37,0.925,0,1,-99,-99
"5753","want","ascent",11,2,-99,-99,29,0.725,1,0,-99,-99
"5753","replace","roach",12,2,-99,-99,14,0.35,1,1,-99,-99
"5753","rock","milk",13,2,-99,-99,32,0.8,1,0,-99,-99
"5753","knock","otter",14,2,-99,-99,38,0.95,0,0,-99,-99
"5753","link","crisis",15,2,-99,-99,8,0.2,1,0,-99,-99
"5753","caring","skirt",16,2,-99,-99,20,0.5,0,1,-99,-99
"5753","shrink","mafia",17,2,-99,-99,7,0.175,0,1,-99,-99
"5753","remind","foam",18,2,-99,-99,30,0.75,0,0,-99,-99
"5753","process","joker",19,2,-99,-99,1,0.025,1,1,-99,-99
"5753","smother","surgery",20,2,-99,-99,4,0.1,1,0,-99,-99
"5753","climax","saucer",21,2,-99,-99,11,0.275,1,1,-99,-99
"5753","chicken","beet",22,2,-99,-99,5,0.125,1,1,-99,-99
"5753","plant","worm",23,2,-99,-99,2,0.05,1,0,-99,-99
"5753","calf","annoy",24,2,-99,-99,16,0.4,1,1,-99,-99
"5753","pea","bathtub",25,2,-99,-99,39,0.975,1,0,-99,-99
"5753","bullet","walkway",26,2,-99,-99,28,0.7,1,1,-99,-99
"5753","capital","figure",27,2,-99,-99,6,0.15,0,0,-99,-99
"5753","bias","sirloin",28,2,-99,-99,19,0.475,0,0,-99,-99
"5753","forest","knob",29,2,-99,-99,35,0.875,1,0,-99,-99
"5753","find","clown",30,2,-99,-99,27,0.675,0,0,-99,-99
"5753","mill","feast",31,2,-99,-99,34,0.85,0,0,-99,-99
"5753","biology","temper",32,2,-99,-99,17,0.425,0,1,-99,-99
"5753","need","faucet",33,2,-99,-99,15,0.375,0,0,-99,-99
"5753","fee","chowder",34,2,-99,-99,13,0.325,0,0,-99,-99
"5753","grip","beach",35,2,-99,-99,36,0.9,0,1,-99,-99
"5753","pork","emperor",36,2,-99,-99,24,0.6,1,1,-99,-99
"5753","banner","glide",37,2,-99,-99,10,0.25,0,1,-99,-99
"5753","risk","zero",38,2,-99,-99,18,0.45,1,0,-99,-99
"5753","bacon","feud",39,2,-99,-99,31,0.775,1,1,-99,-99
"5753","fan","feature",40,2,-99,-99,21,0.525,0,1,-99,-99
"5753","capital","figure",1,3,40,20.843,6,0.15,0,0,1,12.932
"5753","climax","saucer",2,3,56,5.337,11,0.275,1,1,1,2.902
"5753","bacon","feud",3,3,67,4.119,31,0.775,1,1,1,1.761
"5753","calf","annoy",4,3,62,2.889,16,0.4,1,1,1,0.735
"5753","find","clown",5,3,42,2.598,27,0.675,0,0,1,0.759
"5753","remind","foam",6,3,35,5.02,30,0.75,0,0,1,1.089
"5753","process","joker",7,3,63,2.789,1,0.025,1,1,1,0.886
"5753","chicken","beet",8,3,80,3.398,5,0.125,1,1,1,1.064
"5753","replace","roach",9,3,58,8.966,14,0.35,1,1,1,0.632
"5753","pork","emperor",10,3,56,9.295,24,0.6,1,1,1,0.734
"5753","visit","glove",11,3,36,2.143,26,0.65,0,0,1,0.835
"5753","fee","chowder",12,3,54,2.751,13,0.325,0,0,1,0.847
"5753","knock","otter",13,3,45,2.268,38,0.95,0,0,1,0.858
"5753","mill","feast",14,3,42,2.231,34,0.85,0,0,1,0.861
"5753","port","cinema",15,3,54,2.344,12,0.3,0,0,1,0.594
"5753","need","faucet",16,3,37,2.625,15,0.375,0,0,1,0.748
"5753","glue","force",17,3,67,2.205,22,0.55,1,1,1,0.747
"5753","bleach","ruin",18,3,67,2.32,33,0.825,1,1,1,0.86
"5753","bias","sirloin",19,3,55,2.701,19,0.475,0,0,1,0.696
"5753","bullet","walkway",20,3,65,2.192,28,0.7,1,1,1,0.796
"5753","plant","worm",21,3,60,2.486,2,0.05,1,0,0,2.802
"5753","banner","glide",22,3,54,3.17,10,0.25,0,1,0,1.267
"5753","forest","knob",23,3,58,3.563,35,0.875,1,0,0,3.411
"5753","date","laugh",24,3,42,3.082,37,0.925,0,1,0,0.772
"5753","nerve","bumper",25,3,60,1.8,9,0.225,1,0,0,0.645
"5753","copy","bedroom",26,3,43,2.168,23,0.575,0,1,0,2.929
"5753","fan","feature",27,3,39,2.269,21,0.525,0,1,0,0.634
"5753","prison","loaf",28,3,55,2.194,25,0.625,0,1,0,0.799
"5753","want","ascent",29,3,60,1.583,29,0.725,1,0,0,0.582
"5753","grip","beach",30,3,39,1.546,36,0.9,0,1,0,0.874
"5753","anger","decay",31,3,36,2.206,40,1,0,1,0,1.001
"5753","smother","surgery",32,3,66,2.319,4,0.1,1,0,0,0.989
"5753","shrink","mafia",33,3,54,1.419,7,0.175,0,1,0,0.798
"5753","caring","skirt",34,3,51,1.609,20,0.5,0,1,0,0.671
"5753","pea","bathtub",35,3,57,1.279,39,0.975,1,0,0,1.026
"5753","rock","milk",36,3,61,1.9,32,0.8,1,0,0,0.608
"5753","collect","loyalty",37,3,57,1.964,3,0.075,1,0,0,0.783
"5753","biology","temper",38,3,48,2.308,17,0.425,0,1,0,0.986
"5753","risk","zero",39,3,65,1.584,18,0.45,1,0,0,1.294
"5753","link","crisis",40,3,61,2.053,8,0.2,1,0,0,1.318
"6745","mill","feast",1,1,-99,-99,10,0.25,1,0,-99,-99
"6745","prison","loaf",2,1,-99,-99,15,0.375,1,0,-99,-99
"6745","nerve","bumper",3,1,-99,-99,13,0.325,0,1,-99,-99
"6745","smother","surgery",4,1,-99,-99,39,0.975,1,1,-99,-99
"6745","bleach","ruin",5,1,-99,-99,2,0.05,1,1,-99,-99
"6745","replace","roach",6,1,-99,-99,16,0.4,0,0,-99,-99
"6745","knock","otter",7,1,-99,-99,26,0.65,1,1,-99,-99
"6745","fan","feature",8,1,-99,-99,20,0.5,0,1,-99,-99
"6745","glue","force",9,1,-99,-99,6,0.15,1,0,-99,-99
"6745","port","cinema",10,1,-99,-99,23,0.575,1,1,-99,-99
"6745","plant","worm",11,1,-99,-99,35,0.875,0,0,-99,-99
"6745","fee","chowder",12,1,-99,-99,21,0.525,1,0,-99,-99
"6745","pork","emperor",13,1,-99,-99,5,0.125,1,0,-99,-99
"6745","rock","milk",14,1,-99,-99,9,0.225,0,1,-99,-99
"6745","want","ascent",15,1,-99,-99,12,0.3,0,1,-99,-99
"6745","capital","figure",16,1,-99,-99,30,0.75,1,1,-99,-99
"6745","grip","beach",17,1,-99,-99,32,0.8,1,0,-99,-99
"6745","visit","glove",18,1,-99,-99,24,0.6,0,0,-99,-99
"6745","collect","loyalty",19,1,-99,-99,4,0.1,0,1,-99,-99
"6745","link","crisis",20,1,-99,-99,34,0.85,0,0,-99,-99
"6745","caring","skirt",21,1,-99,-99,29,0.725,1,1,-99,-99
"6745","need","faucet",22,1,-99,-99,17,0.425,0,1,-99,-99
"6745","anger","decay",23,1,-99,-99,18,0.45,0,1,-99,-99
"6745","biology","temper",24,1,-99,-99,27,0.675,1,1,-99,-99
"6745","bias","sirloin",25,1,-99,-99,25,0.625,0,0,-99,-99
"6745","find","clown",26,1,-99,-99,31,0.775,0,0,-99,-99
"6745","remind","foam",27,1,-99,-99,22,0.55,1,1,-99,-99
"6745","date","laugh",28,1,-99,-99,40,1,0,0,-99,-99
"6745","risk","zero",29,1,-99,-99,36,0.9,0,1,-99,-99
"6745","banner","glide",30,1,-99,-99,37,0.925,0,0,-99,-99
"6745","copy","bedroom",31,1,-99,-99,1,0.025,0,0,-99,-99
"6745","bacon","feud",32,1,-99,-99,28,0.7,1,1,-99,-99
"6745","pea","bathtub",33,1,-99,-99,8,0.2,1,0,-99,-99
"6745","bullet","walkway",34,1,-99,-99,3,0.075,1,0,-99,-99
"6745","climax","saucer",35,1,-99,-99,11,0.275,0,1,-99,-99
"6745","process","joker",36,1,-99,-99,19,0.475,0,1,-99,-99
"6745","chicken","beet",37,1,-99,-99,14,0.35,1,1,-99,-99
"6745","shrink","mafia",38,1,-99,-99,38,0.95,1,0,-99,-99
"6745","calf","annoy",39,1,-99,-99,33,0.825,0,0,-99,-99
"6745","forest","knob",40,1,-99,-99,7,0.175,1,0,-99,-99
"6745","want","ascent",1,2,-99,-99,12,0.3,0,1,-99,-99
"6745","glue","force",2,2,-99,-99,6,0.15,1,0,-99,-99
"6745","bacon","feud",3,2,-99,-99,28,0.7,1,1,-99,-99
"6745","biology","temper",4,2,-99,-99,27,0.675,1,1,-99,-99
"6745","mill","feast",5,2,-99,-99,10,0.25,1,0,-99,-99
"6745","banner","glide",6,2,-99,-99,37,0.925,0,0,-99,-99
"6745","shrink","mafia",7,2,-99,-99,38,0.95,1,0,-99,-99
"6745","caring","skirt",8,2,-99,-99,29,0.725,1,1,-99,-99
"6745","fee","chowder",9,2,-99,-99,21,0.525,1,0,-99,-99
"6745","need","faucet",10,2,-99,-99,17,0.425,0,1,-99,-99
"6745","prison","loaf",11,2,-99,-99,15,0.375,1,0,-99,-99
"6745","pea","bathtub",12,2,-99,-99,8,0.2,1,0,-99,-99
"6745","remind","foam",13,2,-99,-99,22,0.55,1,1,-99,-99
"6745","collect","loyalty",14,2,-99,-99,4,0.1,0,1,-99,-99
"6745","capital","figure",15,2,-99,-99,30,0.75,1,1,-99,-99
"6745","knock","otter",16,2,-99,-99,26,0.65,1,1,-99,-99
"6745","fan","feature",17,2,-99,-99,20,0.5,0,1,-99,-99
"6745","chicken","beet",18,2,-99,-99,14,0.35,1,1,-99,-99
"6745","bullet","walkway",19,2,-99,-99,3,0.075,1,0,-99,-99
"6745","climax","saucer",20,2,-99,-99,11,0.275,0,1,-99,-99
"6745","anger","decay",21,2,-99,-99,18,0.45,0,1,-99,-99
"6745","date","laugh",22,2,-99,-99,40,1,0,0,-99,-99
"6745","process","joker",23,2,-99,-99,19,0.475,0,1,-99,-99
"6745","rock","milk",24,2,-99,-99,9,0.225,0,1,-99,-99
"6745","risk","zero",25,2,-99,-99,36,0.9,0,1,-99,-99
"6745","pork","emperor",26,2,-99,-99,5,0.125,1,0,-99,-99
"6745","smother","surgery",27,2,-99,-99,39,0.975,1,1,-99,-99
"6745","bias","sirloin",28,2,-99,-99,25,0.625,0,0,-99,-99
"6745","bleach","ruin",29,2,-99,-99,2,0.05,1,1,-99,-99
"6745","forest","knob",30,2,-99,-99,7,0.175,1,0,-99,-99
"6745","copy","bedroom",31,2,-99,-99,1,0.025,0,0,-99,-99
"6745","visit","glove",32,2,-99,-99,24,0.6,0,0,-99,-99
"6745","nerve","bumper",33,2,-99,-99,13,0.325,0,1,-99,-99
"6745","link","crisis",34,2,-99,-99,34,0.85,0,0,-99,-99
"6745","replace","roach",35,2,-99,-99,16,0.4,0,0,-99,-99
"6745","plant","worm",36,2,-99,-99,35,0.875,0,0,-99,-99
"6745","calf","annoy",37,2,-99,-99,33,0.825,0,0,-99,-99
"6745","port","cinema",38,2,-99,-99,23,0.575,1,1,-99,-99
"6745","find","clown",39,2,-99,-99,31,0.775,0,0,-99,-99
"6745","grip","beach",40,2,-99,-99,32,0.8,1,0,-99,-99
"6745","copy","bedroom",1,3,7,5.553,1,0.025,0,0,1,5.782
"6745","bias","sirloin",2,3,33,4.063,25,0.625,0,0,1,4.023
"6745","bacon","feud",3,3,79,4.013,28,0.7,1,1,1,2.983
"6745","capital","figure",4,3,77,2.139,30,0.75,1,1,1,1.054
"6745","knock","otter",5,3,78,2.377,26,0.65,1,1,1,0.97
"6745","biology","temper",6,3,84,1.716,27,0.675,1,1,1,0.921
"6745","date","laugh",7,3,60,2.009,40,1,0,0,1,0.921
"6745","smother","surgery",8,3,95,1.669,39,0.975,1,1,1,1.003
"6745","port","cinema",9,3,76,3.167,23,0.575,1,1,1,0.869
"6745","caring","skirt",10,3,79,1.986,29,0.725,1,1,1,0.87
"6745","find","clown",11,3,70,2.182,31,0.775,0,0,1,1.177
"6745","remind","foam",12,3,76,1.846,22,0.55,1,1,1,1.47
"6745","visit","glove",13,3,72,2.131,24,0.6,0,0,1,1.013
"6745","link","crisis",14,3,28,2.193,34,0.85,0,0,1,1.04
"6745","banner","glide",15,3,69,1.829,37,0.925,0,0,1,0.985
"6745","calf","annoy",16,3,35,2.17,33,0.825,0,0,1,0.958
"6745","plant","worm",17,3,68,1.985,35,0.875,0,0,1,1.154
"6745","chicken","beet",18,3,72,2.178,14,0.35,1,1,1,1.115
"6745","bleach","ruin",19,3,100,3.655,2,0.05,1,1,1,1.113
"6745","replace","roach",20,3,70,2.715,16,0.4,0,0,1,2.048
"6745","forest","knob",21,3,65,1.931,7,0.175,1,0,0,6.633
"6745","fee","chowder",22,3,18,3.885,21,0.525,1,0,0,0.99
"6745","need","faucet",23,3,16,2.039,17,0.425,0,1,0,1.067
"6745","prison","loaf",24,3,18,1.808,15,0.375,1,0,0,0.876
"6745","climax","saucer",25,3,9,1.961,11,0.275,0,1,0,0.762
"6745","fan","feature",26,3,13,1.732,20,0.5,0,1,0,0.899
"6745","nerve","bumper",27,3,13,1.732,13,0.325,0,1,0,0.883
"6745","anger","decay",28,3,10,1.792,18,0.45,0,1,0,1.069
"6745","rock","milk",29,3,16,2.439,9,0.225,0,1,0,0.768
"6745","want","ascent",30,3,10,1.669,12,0.3,0,1,0,0.962
"6745","collect","loyalty",31,3,16,1.715,4,0.1,0,1,0,0.87
"6745","pork","emperor",32,3,83,2.285,5,0.125,1,0,0,1.354
"6745","bullet","walkway",33,3,22,1.968,3,0.075,1,0,0,0.883
"6745","mill","feast",34,3,19,3.048,10,0.25,1,0,0,1.083
"6745","grip","beach",35,3,22,1.699,32,0.8,1,0,0,0.87
"6745","glue","force",36,3,95,3.778,6,0.15,1,0,0,0.946
"6745","shrink","mafia",37,3,20,1.946,38,0.95,1,0,0,0.868
"6745","pea","bathtub",38,3,89,4.841,8,0.2,1,0,0,0.884
"6745","risk","zero",39,3,15,2.193,36,0.9,0,1,0,0.9
"6745","process","joker",40,3,13,1.708,19,0.475,0,1,0,0.878
"6913","replace","roach",1,1,-99,-99,17,0.425,0,1,-99,-99
"6913","capital","figure",2,1,-99,-99,40,1,0,0,-99,-99
"6913","banner","glide",3,1,-99,-99,21,0.525,1,0,-99,-99
"6913","find","clown",4,1,-99,-99,31,0.775,0,0,-99,-99
"6913","pork","emperor",5,1,-99,-99,5,0.125,0,1,-99,-99
"6913","pea","bathtub",6,1,-99,-99,7,0.175,0,0,-99,-99
"6913","port","cinema",7,1,-99,-99,23,0.575,1,0,-99,-99
"6913","bleach","ruin",8,1,-99,-99,6,0.15,1,1,-99,-99
"6913","fee","chowder",9,1,-99,-99,8,0.2,1,1,-99,-99
"6913","biology","temper",10,1,-99,-99,3,0.075,0,0,-99,-99
"6913","date","laugh",11,1,-99,-99,22,0.55,0,1,-99,-99
"6913","copy","bedroom",12,1,-99,-99,16,0.4,0,1,-99,-99
"6913","rock","milk",13,1,-99,-99,34,0.85,0,1,-99,-99
"6913","collect","loyalty",14,1,-99,-99,33,0.825,0,0,-99,-99
"6913","remind","foam",15,1,-99,-99,13,0.325,1,1,-99,-99
"6913","need","faucet",16,1,-99,-99,27,0.675,0,1,-99,-99
"6913","visit","glove",17,1,-99,-99,2,0.05,1,0,-99,-99
"6913","mill","feast",18,1,-99,-99,38,0.95,0,0,-99,-99
"6913","chicken","beet",19,1,-99,-99,4,0.1,1,0,-99,-99
"6913","bacon","feud",20,1,-99,-99,36,0.9,1,1,-99,-99
"6913","risk","zero",21,1,-99,-99,35,0.875,0,0,-99,-99
"6913","prison","loaf",22,1,-99,-99,24,0.6,0,1,-99,-99
"6913","knock","otter",23,1,-99,-99,15,0.375,0,0,-99,-99
"6913","anger","decay",24,1,-99,-99,12,0.3,0,1,-99,-99
"6913","want","ascent",25,1,-99,-99,39,0.975,1,1,-99,-99
"6913","caring","skirt",26,1,-99,-99,25,0.625,1,0,-99,-99
"6913","process","joker",27,1,-99,-99,18,0.45,1,0,-99,-99
"6913","calf","annoy",28,1,-99,-99,37,0.925,0,0,-99,-99
"6913","bullet","walkway",29,1,-99,-99,10,0.25,1,0,-99,-99
"6913","fan","feature",30,1,-99,-99,28,0.7,0,0,-99,-99
"6913","grip","beach",31,1,-99,-99,29,0.725,1,1,-99,-99
"6913","glue","force",32,1,-99,-99,9,0.225,1,1,-99,-99
"6913","plant","worm",33,1,-99,-99,32,0.8,1,1,-99,-99
"6913","bias","sirloin",34,1,-99,-99,1,0.025,1,1,-99,-99
"6913","forest","knob",35,1,-99,-99,30,0.75,1,1,-99,-99
"6913","link","crisis",36,1,-99,-99,14,0.35,1,0,-99,-99
"6913","shrink","mafia",37,1,-99,-99,26,0.65,0,1,-99,-99
"6913","nerve","bumper",38,1,-99,-99,20,0.5,1,0,-99,-99
"6913","climax","saucer",39,1,-99,-99,19,0.475,1,0,-99,-99
"6913","smother","surgery",40,1,-99,-99,11,0.275,0,1,-99,-99
"6913","anger","decay",1,2,-99,-99,12,0.3,0,1,-99,-99
"6913","grip","beach",2,2,-99,-99,29,0.725,1,1,-99,-99
"6913","copy","bedroom",3,2,-99,-99,16,0.4,0,1,-99,-99
"6913","calf","annoy",4,2,-99,-99,37,0.925,0,0,-99,-99
"6913","glue","force",5,2,-99,-99,9,0.225,1,1,-99,-99
"6913","forest","knob",6,2,-99,-99,30,0.75,1,1,-99,-99
"6913","risk","zero",7,2,-99,-99,35,0.875,0,0,-99,-99
"6913","bleach","ruin",8,2,-99,-99,6,0.15,1,1,-99,-99
"6913","process","joker",9,2,-99,-99,18,0.45,1,0,-99,-99
"6913","fan","feature",10,2,-99,-99,28,0.7,0,0,-99,-99
"6913","link","crisis",11,2,-99,-99,14,0.35,1,0,-99,-99
"6913","prison","loaf",12,2,-99,-99,24,0.6,0,1,-99,-99
"6913","find","clown",13,2,-99,-99,31,0.775,0,0,-99,-99
"6913","climax","saucer",14,2,-99,-99,19,0.475,1,0,-99,-99
"6913","shrink","mafia",15,2,-99,-99,26,0.65,0,1,-99,-99
"6913","mill","feast",16,2,-99,-99,38,0.95,0,0,-99,-99
"6913","collect","loyalty",17,2,-99,-99,33,0.825,0,0,-99,-99
"6913","rock","milk",18,2,-99,-99,34,0.85,0,1,-99,-99
"6913","plant","worm",19,2,-99,-99,32,0.8,1,1,-99,-99
"6913","pork","emperor",20,2,-99,-99,5,0.125,0,1,-99,-99
"6913","capital","figure",21,2,-99,-99,40,1,0,0,-99,-99
"6913","remind","foam",22,2,-99,-99,13,0.325,1,1,-99,-99
"6913","replace","roach",23,2,-99,-99,17,0.425,0,1,-99,-99
"6913","need","faucet",24,2,-99,-99,27,0.675,0,1,-99,-99
"6913","pea","bathtub",25,2,-99,-99,7,0.175,0,0,-99,-99
"6913","bullet","walkway",26,2,-99,-99,10,0.25,1,0,-99,-99
"6913","bacon","feud",27,2,-99,-99,36,0.9,1,1,-99,-99
"6913","knock","otter",28,2,-99,-99,15,0.375,0,0,-99,-99
"6913","fee","chowder",29,2,-99,-99,8,0.2,1,1,-99,-99
"6913","visit","glove",30,2,-99,-99,2,0.05,1,0,-99,-99
"6913","biology","temper",31,2,-99,-99,3,0.075,0,0,-99,-99
"6913","banner","glide",32,2,-99,-99,21,0.525,1,0,-99,-99
"6913","nerve","bumper",33,2,-99,-99,20,0.5,1,0,-99,-99
"6913","chicken","beet",34,2,-99,-99,4,0.1,1,0,-99,-99
"6913","bias","sirloin",35,2,-99,-99,1,0.025,1,1,-99,-99
"6913","smother","surgery",36,2,-99,-99,11,0.275,0,1,-99,-99
"6913","port","cinema",37,2,-99,-99,23,0.575,1,0,-99,-99
"6913","caring","skirt",38,2,-99,-99,25,0.625,1,0,-99,-99
"6913","date","laugh",39,2,-99,-99,22,0.55,0,1,-99,-99
"6913","want","ascent",40,2,-99,-99,39,0.975,1,1,-99,-99
"6913","shrink","mafia",1,3,81,10.099,26,0.65,0,1,0,5.707
"6913","fan","feature",2,3,93,10.212,28,0.7,0,0,1,0.854
"6913","collect","loyalty",3,3,91,5.575,33,0.825,0,0,1,2.069
"6913","want","ascent",4,3,95,5.207,39,0.975,1,1,1,3.477
"6913","bacon","feud",5,3,93,8.245,36,0.9,1,1,1,1.471
"6913","risk","zero",6,3,82,2.86,35,0.875,0,0,1,2.359
"6913","mill","feast",7,3,92,2.709,38,0.95,0,0,1,2.829
"6913","find","clown",8,3,92,3.205,31,0.775,0,0,1,1.367
"6913","capital","figure",9,3,90,3.262,40,1,0,0,1,1.021
"6913","bias","sirloin",10,3,93,3.934,1,0.025,1,1,1,4.831
"6913","forest","knob",11,3,93,3.517,30,0.75,1,1,1,1.251
"6913","plant","worm",12,3,95,4.357,32,0.8,1,1,1,1.765
"6913","calf","annoy",13,3,92,3.781,37,0.925,0,0,1,1.059
"6913","bleach","ruin",14,3,93,3.533,6,0.15,1,1,1,0.997
"6913","knock","otter",15,3,88,4.622,15,0.375,0,0,1,1.085
"6913","grip","beach",16,3,94,4.243,29,0.725,1,1,1,4.825
"6913","glue","force",17,3,95,5.743,9,0.225,1,1,1,1.256
"6913","biology","temper",18,3,92,3.019,3,0.075,0,0,1,1.143
"6913","pea","bathtub",19,3,92,2.948,7,0.175,0,0,1,1.189
"6913","fee","chowder",20,3,94,14.331,8,0.2,1,1,1,1.23
"6913","remind","foam",21,3,95,3.741,13,0.325,1,1,1,1.63
"6913","process","joker",22,3,96,4.47,18,0.45,1,0,0,1.358
"6913","climax","saucer",23,3,93,3.66,19,0.475,1,0,0,3.431
"6913","caring","skirt",24,3,94,3.037,25,0.625,1,0,0,0.992
"6913","visit","glove",25,3,92,3.076,2,0.05,1,0,0,1.022
"6913","pork","emperor",26,3,60,3.579,5,0.125,0,1,0,1.519
"6913","bullet","walkway",27,3,100,2.572,10,0.25,1,0,0,1.182
"6913","smother","surgery",28,3,62,2.677,11,0.275,0,1,0,1.303
"6913","link","crisis",29,3,89,3.653,14,0.35,1,0,0,0.974
"6913","port","cinema",30,3,81,3.285,23,0.575,1,0,0,1.03
"6913","copy","bedroom",31,3,76,3.253,16,0.4,0,1,0,1.103
"6913","nerve","bumper",32,3,81,3.941,20,0.5,1,0,0,1.013
"6913","prison","loaf",33,3,62,2.598,24,0.6,0,1,0,1.071
"6913","chicken","beet",34,3,100,2.485,4,0.1,1,0,0,1.03
"6913","anger","decay",35,3,73,3.038,12,0.3,0,1,0,1.101
"6913","replace","roach",36,3,66,2.574,17,0.425,0,1,0,1.007
"6913","banner","glide",37,3,81,2.74,21,0.525,1,0,0,1.181
"6913","date","laugh",38,3,75,2.695,22,0.55,0,1,0,1.218
"6913","need","faucet",39,3,65,2.525,27,0.675,0,1,0,0.822
"6913","rock","milk",40,3,76,2.71,34,0.85,0,1,0,1.187
"7783","grip","beach",1,1,-99,-99,34,0.85,0,0,-99,-99
"7783","pork","emperor",2,1,-99,-99,27,0.675,0,1,-99,-99
"7783","risk","zero",3,1,-99,-99,25,0.625,0,0,-99,-99
"7783","date","laugh",4,1,-99,-99,12,0.3,1,1,-99,-99
"7783","find","clown",5,1,-99,-99,21,0.525,0,0,-99,-99
"7783","pea","bathtub",6,1,-99,-99,6,0.15,1,1,-99,-99
"7783","copy","bedroom",7,1,-99,-99,10,0.25,0,1,-99,-99
"7783","fan","feature",8,1,-99,-99,38,0.95,0,0,-99,-99
"7783","want","ascent",9,1,-99,-99,1,0.025,0,1,-99,-99
"7783","collect","loyalty",10,1,-99,-99,32,0.8,0,1,-99,-99
"7783","bacon","feud",11,1,-99,-99,39,0.975,1,1,-99,-99
"7783","shrink","mafia",12,1,-99,-99,24,0.6,0,0,-99,-99
"7783","need","faucet",13,1,-99,-99,4,0.1,1,0,-99,-99
"7783","link","crisis",14,1,-99,-99,7,0.175,1,0,-99,-99
"7783","glue","force",15,1,-99,-99,19,0.475,1,1,-99,-99
"7783","chicken","beet",16,1,-99,-99,13,0.325,1,1,-99,-99
"7783","forest","knob",17,1,-99,-99,18,0.45,1,1,-99,-99
"7783","biology","temper",18,1,-99,-99,29,0.725,0,1,-99,-99
"7783","smother","surgery",19,1,-99,-99,30,0.75,0,0,-99,-99
"7783","remind","foam",20,1,-99,-99,15,0.375,1,0,-99,-99
"7783","rock","milk",21,1,-99,-99,2,0.05,1,1,-99,-99
"7783","port","cinema",22,1,-99,-99,40,1,0,1,-99,-99
"7783","bleach","ruin",23,1,-99,-99,36,0.9,1,1,-99,-99
"7783","knock","otter",24,1,-99,-99,8,0.2,1,1,-99,-99
"7783","calf","annoy",25,1,-99,-99,20,0.5,0,0,-99,-99
"7783","mill","feast",26,1,-99,-99,22,0.55,1,0,-99,-99
"7783","anger","decay",27,1,-99,-99,33,0.825,0,0,-99,-99
"7783","replace","roach",28,1,-99,-99,9,0.225,0,1,-99,-99
"7783","climax","saucer",29,1,-99,-99,16,0.4,1,0,-99,-99
"7783","banner","glide",30,1,-99,-99,26,0.65,0,0,-99,-99
"7783","visit","glove",31,1,-99,-99,3,0.075,1,0,-99,-99
"7783","plant","worm",32,1,-99,-99,14,0.35,1,0,-99,-99
"7783","bullet","walkway",33,1,-99,-99,11,0.275,0,0,-99,-99
"7783","fee","chowder",34,1,-99,-99,37,0.925,1,0,-99,-99
"7783","bias","sirloin",35,1,-99,-99,28,0.7,0,1,-99,-99
"7783","capital","figure",36,1,-99,-99,31,0.775,1,0,-99,-99
"7783","nerve","bumper",37,1,-99,-99,17,0.425,1,0,-99,-99
"7783","process","joker",38,1,-99,-99,35,0.875,0,1,-99,-99
"7783","caring","skirt",39,1,-99,-99,23,0.575,0,1,-99,-99
"7783","prison","loaf",40,1,-99,-99,5,0.125,1,1,-99,-99
"7783","chicken","beet",1,2,-99,-99,13,0.325,1,1,-99,-99
"7783","shrink","mafia",2,2,-99,-99,24,0.6,0,0,-99,-99
"7783","risk","zero",3,2,-99,-99,25,0.625,0,0,-99,-99
"7783","nerve","bumper",4,2,-99,-99,17,0.425,1,0,-99,-99
"7783","visit","glove",5,2,-99,-99,3,0.075,1,0,-99,-99
"7783","bullet","walkway",6,2,-99,-99,11,0.275,0,0,-99,-99
"7783","remind","foam",7,2,-99,-99,15,0.375,1,0,-99,-99
"7783","knock","otter",8,2,-99,-99,8,0.2,1,1,-99,-99
"7783","mill","feast",9,2,-99,-99,22,0.55,1,0,-99,-99
"7783","banner","glide",10,2,-99,-99,26,0.65,0,0,-99,-99
"7783","fan","feature",11,2,-99,-99,38,0.95,0,0,-99,-99
"7783","find","clown",12,2,-99,-99,21,0.525,0,0,-99,-99
"7783","pork","emperor",13,2,-99,-99,27,0.675,0,1,-99,-99
"7783","copy","bedroom",14,2,-99,-99,10,0.25,0,1,-99,-99
"7783","forest","knob",15,2,-99,-99,18,0.45,1,1,-99,-99
"7783","smother","surgery",16,2,-99,-99,30,0.75,0,0,-99,-99
"7783","rock","milk",17,2,-99,-99,2,0.05,1,1,-99,-99
"7783","biology","temper",18,2,-99,-99,29,0.725,0,1,-99,-99
"7783","bleach","ruin",19,2,-99,-99,36,0.9,1,1,-99,-99
"7783","glue","force",20,2,-99,-99,19,0.475,1,1,-99,-99
"7783","caring","skirt",21,2,-99,-99,23,0.575,0,1,-99,-99
"7783","port","cinema",22,2,-99,-99,40,1,0,1,-99,-99
"7783","prison","loaf",23,2,-99,-99,5,0.125,1,1,-99,-99
"7783","collect","loyalty",24,2,-99,-99,32,0.8,0,1,-99,-99
"7783","date","laugh",25,2,-99,-99,12,0.3,1,1,-99,-99
"7783","grip","beach",26,2,-99,-99,34,0.85,0,0,-99,-99
"7783","process","joker",27,2,-99,-99,35,0.875,0,1,-99,-99
"7783","need","faucet",28,2,-99,-99,4,0.1,1,0,-99,-99
"7783","climax","saucer",29,2,-99,-99,16,0.4,1,0,-99,-99
"7783","calf","annoy",30,2,-99,-99,20,0.5,0,0,-99,-99
"7783","fee","chowder",31,2,-99,-99,37,0.925,1,0,-99,-99
"7783","capital","figure",32,2,-99,-99,31,0.775,1,0,-99,-99
"7783","plant","worm",33,2,-99,-99,14,0.35,1,0,-99,-99
"7783","anger","decay",34,2,-99,-99,33,0.825,0,0,-99,-99
"7783","bacon","feud",35,2,-99,-99,39,0.975,1,1,-99,-99
"7783","bias","sirloin",36,2,-99,-99,28,0.7,0,1,-99,-99
"7783","replace","roach",37,2,-99,-99,9,0.225,0,1,-99,-99
"7783","link","crisis",38,2,-99,-99,7,0.175,1,0,-99,-99
"7783","want","ascent",39,2,-99,-99,1,0.025,0,1,-99,-99
"7783","pea","bathtub",40,2,-99,-99,6,0.15,1,1,-99,-99
"7783","smother","surgery",1,3,20,10.055,30,0.75,0,0,1,16.877
"7783","port","cinema",2,3,12,12.91,40,1,0,1,0,0.983
"7783","remind","foam",3,3,20,5.316,15,0.375,1,0,0,3.903
"7783","nerve","bumper",4,3,21,4.71,17,0.425,1,0,0,7.526
"7783","banner","glide",5,3,31,2.945,26,0.65,0,0,1,0.926
"7783","rock","milk",6,3,97,3.846,2,0.05,1,1,1,0.828
"7783","capital","figure",7,3,30,8.814,31,0.775,1,0,0,1.119
"7783","climax","saucer",8,3,17,5.933,16,0.4,1,0,0,1.391
"7783","glue","force",9,3,93,4.965,19,0.475,1,1,1,0.783
"7783","anger","decay",10,3,61,5.985,33,0.825,0,0,1,0.791
"7783","knock","otter",11,3,93,4.18,8,0.2,1,1,1,0.752
"7783","forest","knob",12,3,93,11.117,18,0.45,1,1,1,0.911
"7783","calf","annoy",13,3,67,7.13,20,0.5,0,0,1,1.575
"7783","bleach","ruin",14,3,93,2.509,36,0.9,1,1,1,1.019
"7783","caring","skirt",15,3,9,2.242,23,0.575,0,1,0,0.83
"7783","pork","emperor",16,3,15,3.289,27,0.675,0,1,0,0.834
"7783","want","ascent",17,3,10,2.699,1,0.025,0,1,0,0.829
"7783","visit","glove",18,3,17,2.394,3,0.075,1,0,0,0.823
"7783","collect","loyalty",19,3,15,2.256,32,0.8,0,1,0,0.718
"7783","need","faucet",20,3,17,5.846,4,0.1,1,0,0,0.852
"7783","grip","beach",21,3,41,10.665,34,0.85,0,0,1,0.846
"7783","risk","zero",22,3,61,4.254,25,0.625,0,0,1,1.182
"7783","link","crisis",23,3,19,2.042,7,0.175,1,0,0,0.974
"7783","prison","loaf",24,3,96,3.606,5,0.125,1,1,1,1.137
"7783","find","clown",25,3,24,2.645,21,0.525,0,0,1,0.799
"7783","copy","bedroom",26,3,11,3.529,10,0.25,0,1,0,0.787
"7783","mill","feast",27,3,19,2.358,22,0.55,1,0,0,0.705
"7783","fan","feature",28,3,89,3.962,38,0.95,0,0,1,0.802
"7783","chicken","beet",29,3,90,4.597,13,0.325,1,1,1,1.207
"7783","bias","sirloin",30,3,7,2.088,28,0.7,0,1,0,1.087
"7783","biology","temper",31,3,12,2.137,29,0.725,0,1,0,1.15
"7783","fee","chowder",32,3,20,3.216,37,0.925,1,0,0,0.815
"7783","replace","roach",33,3,15,2.193,9,0.225,0,1,0,0.703
"7783","bullet","walkway",34,3,22,2.608,11,0.275,0,0,1,0.963
"7783","date","laugh",35,3,98,4.302,12,0.3,1,1,1,0.894
"7783","plant","worm",36,3,18,2.519,14,0.35,1,0,0,1.007
"7783","bacon","feud",37,3,90,7.585,39,0.975,1,1,1,0.952
"7783","shrink","mafia",38,3,64,2.296,24,0.6,0,0,1,0.75
"7783","pea","bathtub",39,3,94,3.802,6,0.15,1,1,1,1.056
"7783","process","joker",40,3,7,2.158,35,0.875,0,1,0,1.09
"8301","process","joker",1,1,-99,-99,21,0.525,0,0,-99,-99
"8301","bacon","feud",2,1,-99,-99,3,0.075,1,0,-99,-99
"8301","date","laugh",3,1,-99,-99,15,0.375,0,0,-99,-99
"8301","plant","worm",4,1,-99,-99,10,0.25,1,1,-99,-99
"8301","biology","temper",5,1,-99,-99,37,0.925,1,0,-99,-99
"8301","fan","feature",6,1,-99,-99,6,0.15,1,0,-99,-99
"8301","find","clown",7,1,-99,-99,34,0.85,0,1,-99,-99
"8301","collect","loyalty",8,1,-99,-99,1,0.025,1,1,-99,-99
"8301","bleach","ruin",9,1,-99,-99,11,0.275,1,1,-99,-99
"8301","anger","decay",10,1,-99,-99,31,0.775,0,1,-99,-99
"8301","nerve","bumper",11,1,-99,-99,8,0.2,0,1,-99,-99
"8301","pork","emperor",12,1,-99,-99,33,0.825,1,1,-99,-99
"8301","want","ascent",13,1,-99,-99,14,0.35,0,1,-99,-99
"8301","visit","glove",14,1,-99,-99,18,0.45,0,0,-99,-99
"8301","glue","force",15,1,-99,-99,13,0.325,1,1,-99,-99
"8301","banner","glide",16,1,-99,-99,40,1,1,0,-99,-99
"8301","fee","chowder",17,1,-99,-99,7,0.175,1,0,-99,-99
"8301","pea","bathtub",18,1,-99,-99,4,0.1,0,0,-99,-99
"8301","bullet","walkway",19,1,-99,-99,23,0.575,1,1,-99,-99
"8301","calf","annoy",20,1,-99,-99,38,0.95,0,1,-99,-99
"8301","bias","sirloin",21,1,-99,-99,28,0.7,0,1,-99,-99
"8301","caring","skirt",22,1,-99,-99,26,0.65,1,0,-99,-99
"8301","chicken","beet",23,1,-99,-99,32,0.8,0,1,-99,-99
"8301","need","faucet",24,1,-99,-99,36,0.9,1,0,-99,-99
"8301","mill","feast",25,1,-99,-99,12,0.3,0,0,-99,-99
"8301","shrink","mafia",26,1,-99,-99,16,0.4,0,0,-99,-99
"8301","climax","saucer",27,1,-99,-99,9,0.225,1,0,-99,-99
"8301","knock","otter",28,1,-99,-99,20,0.5,1,1,-99,-99
"8301","remind","foam",29,1,-99,-99,2,0.05,0,1,-99,-99
"8301","copy","bedroom",30,1,-99,-99,27,0.675,0,1,-99,-99
"8301","risk","zero",31,1,-99,-99,39,0.975,1,0,-99,-99
"8301","grip","beach",32,1,-99,-99,5,0.125,1,1,-99,-99
"8301","port","cinema",33,1,-99,-99,25,0.625,0,0,-99,-99
"8301","replace","roach",34,1,-99,-99,17,0.425,0,0,-99,-99
"8301","rock","milk",35,1,-99,-99,19,0.475,1,1,-99,-99
"8301","prison","loaf",36,1,-99,-99,22,0.55,0,0,-99,-99
"8301","forest","knob",37,1,-99,-99,29,0.725,0,1,-99,-99
"8301","capital","figure",38,1,-99,-99,24,0.6,1,1,-99,-99
"8301","link","crisis",39,1,-99,-99,30,0.75,1,0,-99,-99
"8301","smother","surgery",40,1,-99,-99,35,0.875,0,0,-99,-99
"8301","bias","sirloin",1,2,-99,-99,28,0.7,0,1,-99,-99
"8301","bleach","ruin",2,2,-99,-99,11,0.275,1,1,-99,-99
"8301","bullet","walkway",3,2,-99,-99,23,0.575,1,1,-99,-99
"8301","biology","temper",4,2,-99,-99,37,0.925,1,0,-99,-99
"8301","anger","decay",5,2,-99,-99,31,0.775,0,1,-99,-99
"8301","capital","figure",6,2,-99,-99,24,0.6,1,1,-99,-99
"8301","port","cinema",7,2,-99,-99,25,0.625,0,0,-99,-99
"8301","bacon","feud",8,2,-99,-99,3,0.075,1,0,-99,-99
"8301","collect","loyalty",9,2,-99,-99,1,0.025,1,1,-99,-99
"8301","need","faucet",10,2,-99,-99,36,0.9,1,0,-99,-99
"8301","shrink","mafia",11,2,-99,-99,16,0.4,0,0,-99,-99
"8301","remind","foam",12,2,-99,-99,2,0.05,0,1,-99,-99
"8301","process","joker",13,2,-99,-99,21,0.525,0,0,-99,-99
"8301","prison","loaf",14,2,-99,-99,22,0.55,0,0,-99,-99
"8301","find","clown",15,2,-99,-99,34,0.85,0,1,-99,-99
"8301","forest","knob",16,2,-99,-99,29,0.725,0,1,-99,-99
"8301","pork","emperor",17,2,-99,-99,33,0.825,1,1,-99,-99
"8301","nerve","bumper",18,2,-99,-99,8,0.2,0,1,-99,-99
"8301","visit","glove",19,2,-99,-99,18,0.45,0,0,-99,-99
"8301","glue","force",20,2,-99,-99,13,0.325,1,1,-99,-99
"8301","climax","saucer",21,2,-99,-99,9,0.225,1,0,-99,-99
"8301","caring","skirt",22,2,-99,-99,26,0.65,1,0,-99,-99
"8301","copy","bedroom",23,2,-99,-99,27,0.675,0,1,-99,-99
"8301","rock","milk",24,2,-99,-99,19,0.475,1,1,-99,-99
"8301","mill","feast",25,2,-99,-99,12,0.3,0,0,-99,-99
"8301","replace","roach",26,2,-99,-99,17,0.425,0,0,-99,-99
"8301","smother","surgery",27,2,-99,-99,35,0.875,0,0,-99,-99
"8301","banner","glide",28,2,-99,-99,40,1,1,0,-99,-99
"8301","date","laugh",29,2,-99,-99,15,0.375,0,0,-99,-99
"8301","risk","zero",30,2,-99,-99,39,0.975,1,0,-99,-99
"8301","fan","feature",31,2,-99,-99,6,0.15,1,0,-99,-99
"8301","grip","beach",32,2,-99,-99,5,0.125,1,1,-99,-99
"8301","chicken","beet",33,2,-99,-99,32,0.8,0,1,-99,-99
"8301","fee","chowder",34,2,-99,-99,7,0.175,1,0,-99,-99
"8301","plant","worm",35,2,-99,-99,10,0.25,1,1,-99,-99
"8301","calf","annoy",36,2,-99,-99,38,0.95,0,1,-99,-99
"8301","want","ascent",37,2,-99,-99,14,0.35,0,1,-99,-99
"8301","pea","bathtub",38,2,-99,-99,4,0.1,0,0,-99,-99
"8301","knock","otter",39,2,-99,-99,20,0.5,1,1,-99,-99
"8301","link","crisis",40,2,-99,-99,30,0.75,1,0,-99,-99
"8301","prison","loaf",1,3,83,5.199,22,0.55,0,0,1,9.729
"8301","plant","worm",2,3,90,4.898,10,0.25,1,1,1,3.5
"8301","bleach","ruin",3,3,90,8.567,11,0.275,1,1,1,3.912
"8301","grip","beach",4,3,88,3.049,5,0.125,1,1,1,3.148
"8301","port","cinema",5,3,81,2.689,25,0.625,0,0,1,1.593
"8301","glue","force",6,3,94,3.372,13,0.325,1,1,1,2.385
"8301","collect","loyalty",7,3,95,4.86,1,0.025,1,1,1,2.59
"8301","bullet","walkway",8,3,93,6.737,23,0.575,1,1,1,5.085
"8301","capital","figure",9,3,92,5.905,24,0.6,1,1,1,2.58
"8301","mill","feast",10,3,79,4.86,12,0.3,0,0,1,3.422
"8301","shrink","mafia",11,3,80,3.422,16,0.4,0,0,1,1.827
"8301","replace","roach",12,3,85,8.038,17,0.425,0,0,1,3.158
"8301","visit","glove",13,3,82,3.871,18,0.45,0,0,1,2.159
"8301","rock","milk",14,3,90,7.042,19,0.475,1,1,1,1.515
"8301","pork","emperor",15,3,89,3.9,33,0.825,1,1,1,1.691
"8301","pea","bathtub",16,3,85,3.774,4,0.1,0,0,1,1.846
"8301","process","joker",17,3,85,4.616,21,0.525,0,0,1,1.582
"8301","smother","surgery",18,3,85,9.427,35,0.875,0,0,1,1.897
"8301","date","laugh",19,3,85,7.598,15,0.375,0,0,1,1.524
"8301","knock","otter",20,3,89,5.789,20,0.5,1,1,1,1.388
"8301","copy","bedroom",21,3,88,3.324,27,0.675,0,1,0,7.637
"8301","bias","sirloin",22,3,78,3.109,28,0.7,0,1,0,2.074
"8301","forest","knob",23,3,84,9.181,29,0.725,0,1,0,3.177
"8301","find","clown",24,3,84,3.344,34,0.85,0,1,0,1.368
"8301","remind","foam",25,3,81,2.845,2,0.05,0,1,0,1.251
"8301","bacon","feud",26,3,92,2.77,3,0.075,1,0,0,2.284
"8301","want","ascent",27,3,89,4.029,14,0.35,0,1,0,1.427
"8301","anger","decay",28,3,89,3.266,31,0.775,0,1,0,2.13
"8301","chicken","beet",29,3,89,2.715,32,0.8,0,1,0,1.368
"8301","climax","saucer",30,3,92,3.354,9,0.225,1,0,0,2.111
"8301","caring","skirt",31,3,90,3.608,26,0.65,1,0,0,1.622
"8301","link","crisis",32,3,91,2.777,30,0.75,1,0,0,5.945
"8301","nerve","bumper",33,3,87,2.736,8,0.2,0,1,0,1.944
"8301","biology","temper",34,3,89,2.61,37,0.925,1,0,0,1.417
"8301","calf","annoy",35,3,88,2.492,38,0.95,0,1,0,1.368
"8301","risk","zero",36,3,95,2.922,39,0.975,1,0,0,1.476
"8301","banner","glide",37,3,93,2.747,40,1,1,0,0,1.261
"8301","fan","feature",38,3,93,2.688,6,0.15,1,0,0,2.298
"8301","fee","chowder",39,3,93,3.636,7,0.175,1,0,0,1.339
"8301","need","faucet",40,3,93,3.022,36,0.9,1,0,0,2.766
"9197","prison","loaf",1,1,-99,-99,29,0.725,1,1,-99,-99
"9197","pea","bathtub",2,1,-99,-99,32,0.8,1,1,-99,-99
"9197","replace","roach",3,1,-99,-99,26,0.65,1,0,-99,-99
"9197","collect","loyalty",4,1,-99,-99,28,0.7,0,1,-99,-99
"9197","find","clown",5,1,-99,-99,22,0.55,0,0,-99,-99
"9197","bullet","walkway",6,1,-99,-99,36,0.9,0,1,-99,-99
"9197","plant","worm",7,1,-99,-99,6,0.15,1,0,-99,-99
"9197","knock","otter",8,1,-99,-99,4,0.1,1,1,-99,-99
"9197","need","faucet",9,1,-99,-99,7,0.175,1,0,-99,-99
"9197","pork","emperor",10,1,-99,-99,27,0.675,1,1,-99,-99
"9197","calf","annoy",11,1,-99,-99,3,0.075,0,0,-99,-99
"9197","glue","force",12,1,-99,-99,15,0.375,1,1,-99,-99
"9197","biology","temper",13,1,-99,-99,40,1,1,1,-99,-99
"9197","grip","beach",14,1,-99,-99,34,0.85,0,0,-99,-99
"9197","bacon","feud",15,1,-99,-99,9,0.225,0,1,-99,-99
"9197","anger","decay",16,1,-99,-99,5,0.125,0,1,-99,-99
"9197","date","laugh",17,1,-99,-99,16,0.4,0,1,-99,-99
"9197","smother","surgery",18,1,-99,-99,21,0.525,1,0,-99,-99
"9197","chicken","beet",19,1,-99,-99,12,0.3,1,0,-99,-99
"9197","fee","chowder",20,1,-99,-99,17,0.425,0,0,-99,-99
"9197","want","ascent",21,1,-99,-99,11,0.275,1,1,-99,-99
"9197","shrink","mafia",22,1,-99,-99,30,0.75,0,0,-99,-99
"9197","copy","bedroom",23,1,-99,-99,13,0.325,1,0,-99,-99
"9197","process","joker",24,1,-99,-99,25,0.625,1,1,-99,-99
"9197","banner","glide",25,1,-99,-99,19,0.475,1,0,-99,-99
"9197","risk","zero",26,1,-99,-99,20,0.5,1,0,-99,-99
"9197","visit","glove",27,1,-99,-99,37,0.925,0,0,-99,-99
"9197","bleach","ruin",28,1,-99,-99,18,0.45,1,1,-99,-99
"9197","link","crisis",29,1,-99,-99,1,0.025,0,1,-99,-99
"9197","capital","figure",30,1,-99,-99,31,0.775,0,0,-99,-99
"9197","forest","knob",31,1,-99,-99,10,0.25,0,0,-99,-99
"9197","nerve","bumper",32,1,-99,-99,39,0.975,0,1,-99,-99
"9197","bias","sirloin",33,1,-99,-99,24,0.6,0,1,-99,-99
"9197","caring","skirt",34,1,-99,-99,8,0.2,1,1,-99,-99
"9197","climax","saucer",35,1,-99,-99,2,0.05,0,1,-99,-99
"9197","port","cinema",36,1,-99,-99,23,0.575,0,1,-99,-99
"9197","fan","feature",37,1,-99,-99,38,0.95,1,0,-99,-99
"9197","rock","milk",38,1,-99,-99,14,0.35,0,0,-99,-99
"9197","mill","feast",39,1,-99,-99,33,0.825,0,0,-99,-99
"9197","remind","foam",40,1,-99,-99,35,0.875,1,0,-99,-99
"9197","rock","milk",1,2,-99,-99,14,0.35,0,0,-99,-99
"9197","glue","force",2,2,-99,-99,15,0.375,1,1,-99,-99
"9197","knock","otter",3,2,-99,-99,4,0.1,1,1,-99,-99
"9197","bullet","walkway",4,2,-99,-99,36,0.9,0,1,-99,-99
"9197","bias","sirloin",5,2,-99,-99,24,0.6,0,1,-99,-99
"9197","copy","bedroom",6,2,-99,-99,13,0.325,1,0,-99,-99
"9197","want","ascent",7,2,-99,-99,11,0.275,1,1,-99,-99
"9197","grip","beach",8,2,-99,-99,34,0.85,0,0,-99,-99
"9197","shrink","mafia",9,2,-99,-99,30,0.75,0,0,-99,-99
"9197","banner","glide",10,2,-99,-99,19,0.475,1,0,-99,-99
"9197","fee","chowder",11,2,-99,-99,17,0.425,0,0,-99,-99
"9197","pork","emperor",12,2,-99,-99,27,0.675,1,1,-99,-99
"9197","mill","feast",13,2,-99,-99,33,0.825,0,0,-99,-99
"9197","calf","annoy",14,2,-99,-99,3,0.075,0,0,-99,-99
"9197","fan","feature",15,2,-99,-99,38,0.95,1,0,-99,-99
"9197","nerve","bumper",16,2,-99,-99,39,0.975,0,1,-99,-99
"9197","chicken","beet",17,2,-99,-99,12,0.3,1,0,-99,-99
"9197","plant","worm",18,2,-99,-99,6,0.15,1,0,-99,-99
"9197","climax","saucer",19,2,-99,-99,2,0.05,0,1,-99,-99
"9197","pea","bathtub",20,2,-99,-99,32,0.8,1,1,-99,-99
"9197","port","cinema",21,2,-99,-99,23,0.575,0,1,-99,-99
"9197","smother","surgery",22,2,-99,-99,21,0.525,1,0,-99,-99
"9197","prison","loaf",23,2,-99,-99,29,0.725,1,1,-99,-99
"9197","link","crisis",24,2,-99,-99,1,0.025,0,1,-99,-99
"9197","bacon","feud",25,2,-99,-99,9,0.225,0,1,-99,-99
"9197","date","laugh",26,2,-99,-99,16,0.4,0,1,-99,-99
"9197","caring","skirt",27,2,-99,-99,8,0.2,1,1,-99,-99
"9197","collect","loyalty",28,2,-99,-99,28,0.7,0,1,-99,-99
"9197","visit","glove",29,2,-99,-99,37,0.925,0,0,-99,-99
"9197","biology","temper",30,2,-99,-99,40,1,1,1,-99,-99
"9197","risk","zero",31,2,-99,-99,20,0.5,1,0,-99,-99
"9197","bleach","ruin",32,2,-99,-99,18,0.45,1,1,-99,-99
"9197","find","clown",33,2,-99,-99,22,0.55,0,0,-99,-99
"9197","need","faucet",34,2,-99,-99,7,0.175,1,0,-99,-99
"9197","anger","decay",35,2,-99,-99,5,0.125,0,1,-99,-99
"9197","remind","foam",36,2,-99,-99,35,0.875,1,0,-99,-99
"9197","capital","figure",37,2,-99,-99,31,0.775,0,0,-99,-99
"9197","process","joker",38,2,-99,-99,25,0.625,1,1,-99,-99
"9197","forest","knob",39,2,-99,-99,10,0.25,0,0,-99,-99
"9197","replace","roach",40,2,-99,-99,26,0.65,1,0,-99,-99
"9197","need","faucet",1,3,15,3.063,7,0.175,1,0,0,6.927
"9197","chicken","beet",2,3,14,5.374,12,0.3,1,0,0,3.383
"9197","glue","force",3,3,80,2.959,15,0.375,1,1,1,2.072
"9197","date","laugh",4,3,7,4.679,16,0.4,0,1,0,1.295
"9197","risk","zero",5,3,28,2.695,20,0.5,1,0,0,1.063
"9197","smother","surgery",6,3,10,2.071,21,0.525,1,0,0,0.767
"9197","bias","sirloin",7,3,1,1.855,24,0.6,0,1,0,1.023
"9197","capital","figure",8,3,15,4.095,31,0.775,0,0,1,1.912
"9197","grip","beach",9,3,14,2.519,34,0.85,0,0,1,1.031
"9197","remind","foam",10,3,22,2.255,35,0.875,1,0,0,1.686
"9197","biology","temper",11,3,29,3.095,40,1,1,1,1,0.624
"9197","bullet","walkway",12,3,1,2,36,0.9,0,1,0,0.744
"9197","find","clown",13,3,18,2.072,22,0.55,0,0,1,1.631
"9197","knock","otter",14,3,98,5.663,4,0.1,1,1,1,2.263
"9197","port","cinema",15,3,1,3.183,23,0.575,0,1,0,0.815
"9197","collect","loyalty",16,3,1,2.143,28,0.7,0,1,0,0.591
"9197","prison","loaf",17,3,93,2.76,29,0.725,1,1,1,1.168
"9197","plant","worm",18,3,30,3.703,6,0.15,1,0,0,1.776
"9197","fan","feature",19,3,14,3.279,38,0.95,1,0,0,0.679
"9197","nerve","bumper",20,3,1,1.575,39,0.975,0,1,0,0.959
"9197","climax","saucer",21,3,1,2.671,2,0.05,0,1,0,0.712
"9197","bacon","feud",22,3,3,2.088,9,0.225,0,1,0,0.768
"9197","banner","glide",23,3,8,1.927,19,0.475,1,0,0,0.655
"9197","link","crisis",24,3,1,2.023,1,0.025,0,1,0,0.623
"9197","caring","skirt",25,3,25,1.911,8,0.2,1,1,1,0.543
"9197","copy","bedroom",26,3,22,2.151,13,0.325,1,0,0,0.727
"9197","pork","emperor",27,3,18,1.863,27,0.675,1,1,1,4.926
"9197","forest","knob",28,3,8,2.472,10,0.25,0,0,1,1.031
"9197","replace","roach",29,3,8,2.247,26,0.65,1,0,0,0.847
"9197","process","joker",30,3,67,1.767,25,0.625,1,1,1,0.735
"9197","anger","decay",31,3,1,2.087,5,0.125,0,1,0,0.559
"9197","want","ascent",32,3,73,2.647,11,0.275,1,1,1,0.623
"9197","bleach","ruin",33,3,32,1.911,18,0.45,1,1,1,0.567
"9197","visit","glove",34,3,1,1.655,37,0.925,0,0,1,0.768
"9197","mill","feast",35,3,1,1.4,33,0.825,0,0,1,0.88
"9197","shrink","mafia",36,3,2,1.806,30,0.75,0,0,1,0.624
"9197","pea","bathtub",37,3,30,2.055,32,0.8,1,1,1,0.623
"9197","calf","annoy",38,3,11,2.191,3,0.075,0,0,1,0.759
"9197","fee","chowder",39,3,12,1.567,17,0.425,0,0,1,0.671
"9197","rock","milk",40,3,1,1.831,14,0.35,0,0,1,1.055
"9455","link","crisis",1,1,-99,-99,24,0.6,0,0,-99,-99
"9455","pork","emperor",2,1,-99,-99,25,0.625,0,1,-99,-99
"9455","mill","feast",3,1,-99,-99,1,0.025,0,1,-99,-99
"9455","plant","worm",4,1,-99,-99,31,0.775,1,0,-99,-99
"9455","anger","decay",5,1,-99,-99,39,0.975,0,0,-99,-99
"9455","shrink","mafia",6,1,-99,-99,27,0.675,1,1,-99,-99
"9455","grip","beach",7,1,-99,-99,13,0.325,0,1,-99,-99
"9455","chicken","beet",8,1,-99,-99,2,0.05,1,1,-99,-99
"9455","remind","foam",9,1,-99,-99,3,0.075,1,0,-99,-99
"9455","forest","knob",10,1,-99,-99,40,1,1,0,-99,-99
"9455","biology","temper",11,1,-99,-99,8,0.2,0,1,-99,-99
"9455","need","faucet",12,1,-99,-99,18,0.45,1,1,-99,-99
"9455","banner","glide",13,1,-99,-99,9,0.225,1,0,-99,-99
"9455","visit","glove",14,1,-99,-99,7,0.175,0,0,-99,-99
"9455","bacon","feud",15,1,-99,-99,26,0.65,1,1,-99,-99
"9455","climax","saucer",16,1,-99,-99,34,0.85,0,1,-99,-99
"9455","knock","otter",17,1,-99,-99,29,0.725,1,1,-99,-99
"9455","smother","surgery",18,1,-99,-99,12,0.3,0,1,-99,-99
"9455","bullet","walkway",19,1,-99,-99,5,0.125,1,0,-99,-99
"9455","replace","roach",20,1,-99,-99,35,0.875,1,0,-99,-99
"9455","fan","feature",21,1,-99,-99,23,0.575,0,0,-99,-99
"9455","date","laugh",22,1,-99,-99,17,0.425,0,1,-99,-99
"9455","port","cinema",23,1,-99,-99,22,0.55,0,0,-99,-99
"9455","want","ascent",24,1,-99,-99,38,0.95,1,0,-99,-99
"9455","glue","force",25,1,-99,-99,20,0.5,0,1,-99,-99
"9455","rock","milk",26,1,-99,-99,36,0.9,1,0,-99,-99
"9455","risk","zero",27,1,-99,-99,15,0.375,1,0,-99,-99
"9455","prison","loaf",28,1,-99,-99,4,0.1,1,0,-99,-99
"9455","find","clown",29,1,-99,-99,28,0.7,0,1,-99,-99
"9455","pea","bathtub",30,1,-99,-99,6,0.15,0,0,-99,-99
"9455","caring","skirt",31,1,-99,-99,19,0.475,0,0,-99,-99
"9455","collect","loyalty",32,1,-99,-99,30,0.75,1,1,-99,-99
"9455","capital","figure",33,1,-99,-99,16,0.4,1,1,-99,-99
"9455","calf","annoy",34,1,-99,-99,10,0.25,1,1,-99,-99
"9455","nerve","bumper",35,1,-99,-99,32,0.8,1,1,-99,-99
"9455","process","joker",36,1,-99,-99,37,0.925,0,0,-99,-99
"9455","fee","chowder",37,1,-99,-99,33,0.825,0,0,-99,-99
"9455","bias","sirloin",38,1,-99,-99,11,0.275,0,1,-99,-99
"9455","bleach","ruin",39,1,-99,-99,14,0.35,1,1,-99,-99
"9455","copy","bedroom",40,1,-99,-99,21,0.525,0,0,-99,-99
"9455","glue","force",1,2,-99,-99,20,0.5,0,1,-99,-99
"9455","replace","roach",2,2,-99,-99,35,0.875,1,0,-99,-99
"9455","knock","otter",3,2,-99,-99,29,0.725,1,1,-99,-99
"9455","need","faucet",4,2,-99,-99,18,0.45,1,1,-99,-99
"9455","smother","surgery",5,2,-99,-99,12,0.3,0,1,-99,-99
"9455","mill","feast",6,2,-99,-99,1,0.025,0,1,-99,-99
"9455","shrink","mafia",7,2,-99,-99,27,0.675,1,1,-99,-99
"9455","caring","skirt",8,2,-99,-99,19,0.475,0,0,-99,-99
"9455","collect","loyalty",9,2,-99,-99,30,0.75,1,1,-99,-99
"9455","fan","feature",10,2,-99,-99,23,0.575,0,0,-99,-99
"9455","visit","glove",11,2,-99,-99,7,0.175,0,0,-99,-99
"9455","bleach","ruin",12,2,-99,-99,14,0.35,1,1,-99,-99
"9455","remind","foam",13,2,-99,-99,3,0.075,1,0,-99,-99
"9455","biology","temper",14,2,-99,-99,8,0.2,0,1,-99,-99
"9455","find","clown",15,2,-99,-99,28,0.7,0,1,-99,-99
"9455","banner","glide",16,2,-99,-99,9,0.225,1,0,-99,-99
"9455","date","laugh",17,2,-99,-99,17,0.425,0,1,-99,-99
"9455","capital","figure",18,2,-99,-99,16,0.4,1,1,-99,-99
"9455","pea","bathtub",19,2,-99,-99,6,0.15,0,0,-99,-99
"9455","port","cinema",20,2,-99,-99,22,0.55,0,0,-99,-99
"9455","fee","chowder",21,2,-99,-99,33,0.825,0,0,-99,-99
"9455","copy","bedroom",22,2,-99,-99,21,0.525,0,0,-99,-99
"9455","chicken","beet",23,2,-99,-99,2,0.05,1,1,-99,-99
"9455","bullet","walkway",24,2,-99,-99,5,0.125,1,0,-99,-99
"9455","want","ascent",25,2,-99,-99,38,0.95,1,0,-99,-99
"9455","rock","milk",26,2,-99,-99,36,0.9,1,0,-99,-99
"9455","prison","loaf",27,2,-99,-99,4,0.1,1,0,-99,-99
"9455","grip","beach",28,2,-99,-99,13,0.325,0,1,-99,-99
"9455","risk","zero",29,2,-99,-99,15,0.375,1,0,-99,-99
"9455","anger","decay",30,2,-99,-99,39,0.975,0,0,-99,-99
"9455","process","joker",31,2,-99,-99,37,0.925,0,0,-99,-99
"9455","bacon","feud",32,2,-99,-99,26,0.65,1,1,-99,-99
"9455","bias","sirloin",33,2,-99,-99,11,0.275,0,1,-99,-99
"9455","nerve","bumper",34,2,-99,-99,32,0.8,1,1,-99,-99
"9455","calf","annoy",35,2,-99,-99,10,0.25,1,1,-99,-99
"9455","plant","worm",36,2,-99,-99,31,0.775,1,0,-99,-99
"9455","link","crisis",37,2,-99,-99,24,0.6,0,0,-99,-99
"9455","forest","knob",38,2,-99,-99,40,1,1,0,-99,-99
"9455","pork","emperor",39,2,-99,-99,25,0.625,0,1,-99,-99
"9455","climax","saucer",40,2,-99,-99,34,0.85,0,1,-99,-99
"9455","chicken","beet",1,3,82,5.581,2,0.05,1,1,1,3.827
"9455","process","joker",2,3,24,2.277,37,0.925,0,0,1,5.602
"9455","bacon","feud",3,3,80,1.815,26,0.65,1,1,1,0.975
"9455","capital","figure",4,3,86,1.355,16,0.4,1,1,1,0.735
"9455","calf","annoy",5,3,75,1.283,10,0.25,1,1,1,0.639
"9455","visit","glove",6,3,53,2.575,7,0.175,0,0,1,30.048
"9455","fan","feature",7,3,33,2.826,23,0.575,0,0,1,0.672
"9455","bleach","ruin",8,3,66,1.556,14,0.35,1,1,1,0.619
"9455","anger","decay",9,3,63,1.695,39,0.975,0,0,1,0.727
"9455","fee","chowder",10,3,32,1.331,33,0.825,0,0,1,0.607
"9455","need","faucet",11,3,67,1.479,18,0.45,1,1,1,0.663
"9455","nerve","bumper",12,3,65,1.611,32,0.8,1,1,1,0.642
"9455","collect","loyalty",13,3,66,1.815,30,0.75,1,1,1,17.971
"9455","link","crisis",14,3,35,1.754,24,0.6,0,0,1,0.742
"9455","knock","otter",15,3,65,1.9,29,0.725,1,1,1,0.754
"9455","pea","bathtub",16,3,29,1.859,6,0.15,0,0,1,0.783
"9455","shrink","mafia",17,3,68,1.362,27,0.675,1,1,1,0.635
"9455","port","cinema",18,3,38,1.335,22,0.55,0,0,1,1.191
"9455","caring","skirt",19,3,61,1.375,19,0.475,0,0,1,0.559
"9455","copy","bedroom",20,3,63,1.239,21,0.525,0,0,1,0.487
"9455","plant","worm",21,3,62,1.395,31,0.775,1,0,0,0.579
"9455","banner","glide",22,3,58,1.031,9,0.225,1,0,0,0.639
"9455","glue","force",23,3,33,1.284,20,0.5,0,1,0,0.586
"9455","climax","saucer",24,3,50,3.411,34,0.85,0,1,0,28.436
"9455","replace","roach",25,3,64,1.549,35,0.875,1,0,0,0.735
"9455","pork","emperor",26,3,27,1.428,25,0.625,0,1,0,0.671
"9455","smother","surgery",27,3,55,1.414,12,0.3,0,1,0,0.607
"9455","risk","zero",28,3,98,1.939,15,0.375,1,0,0,0.795
"9455","biology","temper",29,3,52,1.478,8,0.2,0,1,0,0.648
"9455","grip","beach",30,3,47,2.348,13,0.325,0,1,0,0.817
"9455","want","ascent",31,3,62,1.444,38,0.95,1,0,0,0.587
"9455","bias","sirloin",32,3,38,1.794,11,0.275,0,1,0,20.909
"9455","date","laugh",33,3,37,1.438,17,0.425,0,1,0,0.527
"9455","forest","knob",34,3,63,1.364,40,1,1,0,0,0.66
"9455","bullet","walkway",35,3,63,1.331,5,0.125,1,0,0,0.459
"9455","remind","foam",36,3,100,1.767,3,0.075,1,0,0,0.983
"9455","mill","feast",37,3,24,1.776,1,0.025,0,1,0,0.531
"9455","prison","loaf",38,3,66,1.643,4,0.1,1,0,0,0.799
"9455","find","clown",39,3,36,1.559,28,0.7,0,1,0,0.596
"9455","rock","milk",40,3,69,1.194,36,0.9,1,0,0,1.955
"9911","nerve","bumper",1,1,-99,-99,30,0.75,0,1,-99,-99
"9911","forest","knob",2,1,-99,-99,29,0.725,0,0,-99,-99
"9911","pea","bathtub",3,1,-99,-99,13,0.325,1,1,-99,-99
"9911","collect","loyalty",4,1,-99,-99,23,0.575,0,0,-99,-99
"9911","rock","milk",5,1,-99,-99,37,0.925,1,0,-99,-99
"9911","port","cinema",6,1,-99,-99,10,0.25,1,0,-99,-99
"9911","grip","beach",7,1,-99,-99,5,0.125,1,0,-99,-99
"9911","prison","loaf",8,1,-99,-99,34,0.85,1,1,-99,-99
"9911","bullet","walkway",9,1,-99,-99,40,1,1,1,-99,-99
"9911","knock","otter",10,1,-99,-99,3,0.075,0,1,-99,-99
"9911","link","crisis",11,1,-99,-99,19,0.475,1,1,-99,-99
"9911","process","joker",12,1,-99,-99,35,0.875,1,0,-99,-99
"9911","fee","chowder",13,1,-99,-99,36,0.9,0,0,-99,-99
"9911","date","laugh",14,1,-99,-99,31,0.775,0,1,-99,-99
"9911","banner","glide",15,1,-99,-99,9,0.225,1,1,-99,-99
"9911","anger","decay",16,1,-99,-99,39,0.975,1,1,-99,-99
"9911","capital","figure",17,1,-99,-99,26,0.65,0,0,-99,-99
"9911","bleach","ruin",18,1,-99,-99,6,0.15,1,0,-99,-99
"9911","biology","temper",19,1,-99,-99,15,0.375,0,1,-99,-99
"9911","smother","surgery",20,1,-99,-99,24,0.6,1,1,-99,-99
"9911","calf","annoy",21,1,-99,-99,4,0.1,0,1,-99,-99
"9911","risk","zero",22,1,-99,-99,32,0.8,0,0,-99,-99
"9911","fan","feature",23,1,-99,-99,18,0.45,1,1,-99,-99
"9911","caring","skirt",24,1,-99,-99,8,0.2,0,0,-99,-99
"9911","plant","worm",25,1,-99,-99,33,0.825,1,0,-99,-99
"9911","bias","sirloin",26,1,-99,-99,2,0.05,0,1,-99,-99
"9911","visit","glove",27,1,-99,-99,17,0.425,0,0,-99,-99
"9911","remind","foam",28,1,-99,-99,21,0.525,1,0,-99,-99
"9911","replace","roach",29,1,-99,-99,25,0.625,0,0,-99,-99
"9911","glue","force",30,1,-99,-99,38,0.95,1,0,-99,-99
"9911","pork","emperor",31,1,-99,-99,22,0.55,1,1,-99,-99
"9911","chicken","beet",32,1,-99,-99,12,0.3,1,1,-99,-99
"9911","need","faucet",33,1,-99,-99,1,0.025,0,1,-99,-99
"9911","mill","feast",34,1,-99,-99,27,0.675,0,1,-99,-99
"9911","shrink","mafia",35,1,-99,-99,16,0.4,0,1,-99,-99
"9911","climax","saucer",36,1,-99,-99,11,0.275,0,1,-99,-99
"9911","want","ascent",37,1,-99,-99,28,0.7,0,0,-99,-99
"9911","copy","bedroom",38,1,-99,-99,20,0.5,0,0,-99,-99
"9911","find","clown",39,1,-99,-99,7,0.175,1,0,-99,-99
"9911","bacon","feud",40,1,-99,-99,14,0.35,1,0,-99,-99
"9911","nerve","bumper",1,2,-99,-99,30,0.75,0,1,-99,-99
"9911","anger","decay",2,2,-99,-99,39,0.975,1,1,-99,-99
"9911","rock","milk",3,2,-99,-99,37,0.925,1,0,-99,-99
"9911","chicken","beet",4,2,-99,-99,12,0.3,1,1,-99,-99
"9911","collect","loyalty",5,2,-99,-99,23,0.575,0,0,-99,-99
"9911","fan","feature",6,2,-99,-99,18,0.45,1,1,-99,-99
"9911","biology","temper",7,2,-99,-99,15,0.375,0,1,-99,-99
"9911","need","faucet",8,2,-99,-99,1,0.025,0,1,-99,-99
"9911","capital","figure",9,2,-99,-99,26,0.65,0,0,-99,-99
"9911","risk","zero",10,2,-99,-99,32,0.8,0,0,-99,-99
"9911","plant","worm",11,2,-99,-99,33,0.825,1,0,-99,-99
"9911","knock","otter",12,2,-99,-99,3,0.075,0,1,-99,-99
"9911","forest","knob",13,2,-99,-99,29,0.725,0,0,-99,-99
"9911","glue","force",14,2,-99,-99,38,0.95,1,0,-99,-99
"9911","caring","skirt",15,2,-99,-99,8,0.2,0,0,-99,-99
"9911","bacon","feud",16,2,-99,-99,14,0.35,1,0,-99,-99
"9911","bias","sirloin",17,2,-99,-99,2,0.05,0,1,-99,-99
"9911","want","ascent",18,2,-99,-99,28,0.7,0,0,-99,-99
"9911","process","joker",19,2,-99,-99,35,0.875,1,0,-99,-99
"9911","visit","glove",20,2,-99,-99,17,0.425,0,0,-99,-99
"9911","smother","surgery",21,2,-99,-99,24,0.6,1,1,-99,-99
"9911","copy","bedroom",22,2,-99,-99,20,0.5,0,0,-99,-99
"9911","bullet","walkway",23,2,-99,-99,40,1,1,1,-99,-99
"9911","pork","emperor",24,2,-99,-99,22,0.55,1,1,-99,-99
"9911","climax","saucer",25,2,-99,-99,11,0.275,0,1,-99,-99
"9911","remind","foam",26,2,-99,-99,21,0.525,1,0,-99,-99
"9911","calf","annoy",27,2,-99,-99,4,0.1,0,1,-99,-99
"9911","shrink","mafia",28,2,-99,-99,16,0.4,0,1,-99,-99
"9911","port","cinema",29,2,-99,-99,10,0.25,1,0,-99,-99
"9911","mill","feast",30,2,-99,-99,27,0.675,0,1,-99,-99
"9911","link","crisis",31,2,-99,-99,19,0.475,1,1,-99,-99
"9911","grip","beach",32,2,-99,-99,5,0.125,1,0,-99,-99
"9911","find","clown",33,2,-99,-99,7,0.175,1,0,-99,-99
"9911","prison","loaf",34,2,-99,-99,34,0.85,1,1,-99,-99
"9911","date","laugh",35,2,-99,-99,31,0.775,0,1,-99,-99
"9911","pea","bathtub",36,2,-99,-99,13,0.325,1,1,-99,-99
"9911","replace","roach",37,2,-99,-99,25,0.625,0,0,-99,-99
"9911","fee","chowder",38,2,-99,-99,36,0.9,0,0,-99,-99
"9911","bleach","ruin",39,2,-99,-99,6,0.15,1,0,-99,-99
"9911","banner","glide",40,2,-99,-99,9,0.225,1,1,-99,-99
"9911","need","faucet",1,3,1,5.582,1,0.025,0,1,0,12.085
"9911","bias","sirloin",2,3,1,4.63,2,0.05,0,1,0,1.079
"9911","knock","otter",3,3,1,2.479,3,0.075,0,1,0,0.823
"9911","calf","annoy",4,3,1,2.399,4,0.1,0,1,0,1.007
"9911","find","clown",5,3,2,3.719,7,0.175,1,0,0,1.375
"9911","port","cinema",6,3,2,2.415,10,0.25,1,0,0,1.159
"9911","climax","saucer",7,3,1,2.695,11,0.275,0,1,0,0.815
"9911","pea","bathtub",8,3,100,2.823,13,0.325,1,1,1,1.511
"9911","bacon","feud",9,3,2,3.015,14,0.35,1,0,0,0.959
"9911","biology","temper",10,3,1,2.078,15,0.375,0,1,0,0.815
