"subn","word1","word2","trial","list","jol","jolrt","jolrank","jolrankp","practice","honor","choice","choicert","restudyresp","restudyacc","restudyrtfirst","restudyrt","response","testacc","rtfirst","rt"
"1762","risk","zero",3,1,1,2.913,9,0.225,1,0,0,1.157,NA,NA,NA,NA,"reward",0,6.531,8.649
"1762","anger","decay",19,1,100,2.765,28,0.7,0,0,1,0.679,NA,NA,NA,NA,"stool",0,2.586,3.37
"1762","shrink","mafia",24,1,1,2.199,29,0.725,0,1,0,2.177,NA,NA,NA,NA,"wrap",0,1.658,2.232
"1762","copy","bedroom",12,1,1,2.849,19,0.475,1,0,0,0.571,NA,NA,NA,NA,"paste",0,1.697,2.747
"1762","process","joker",21,1,1,3.821,6,0.15,1,0,0,4.55,NA,NA,NA,NA,"server",0,2.001,3.064
"1762","mill","feast",14,1,1,1.904,21,0.525,1,1,1,0.984,NA,NA,NA,NA,"meek",0,2.242,3.667
"1762","bullet","walkway",33,1,1,2.255,40,1,0,1,0,0.875,NA,NA,NA,NA,"point",0,2.121,2.805
"1762","banner","glide",9,1,1,1.963,15,0.375,1,0,0,0.837,NA,NA,NA,NA,"flag",0,2.418,3.22
"1762","forest","knob",15,1,1,2.371,24,0.6,1,0,0,0.979,NA,NA,NA,NA,"run",0,2.052,3.146
"1762","chicken","beet",26,1,100,2.631,17,0.425,0,0,1,0.813,NA,NA,NA,NA,"beet",1,3.579,4.408
"1762","glue","force",22,1,1,1.683,27,0.675,1,1,1,0.719,NA,NA,NA,NA,"page",0,3.786,4.548
"1762","remind","foam",40,1,1,2.435,33,0.825,0,0,1,0.853,NA,NA,NA,NA,"shrimp",0,2.723,4.123
"1762","pork","emperor",10,1,100,2.491,35,0.875,0,0,1,1.197,NA,NA,NA,NA,"ex..something executor",0,3.249,78.547
"1762","collect","loyalty",13,1,1,3.679,13,0.325,1,1,1,0.525,NA,NA,NA,NA,"balls",0,2.752,3.424
"1762","pea","bathtub",2,1,100,2.191,18,0.45,0,0,1,1.509,NA,NA,NA,NA,"bathtub",1,1.403,3.042
"1762","plant","worm",16,1,23,10.558,3,0.075,0,1,0,2.786,NA,NA,NA,NA,"worm",1,3.711,4.179
"1762","prison","loaf",20,1,1,2.231,14,0.35,1,0,0,0.971,NA,NA,NA,NA,"cell",0,1.585,2.212
"1762","smother","surgery",27,1,77,4.83,4,0.1,0,0,1,7.871,NA,NA,NA,NA,"surgery",1,2.545,10.466
"1762","bias","sirloin",23,1,72,3.375,39,0.975,0,0,1,0.688,NA,NA,NA,NA,"sirloin",1,1.386,4.616
"1762","rock","milk",30,1,1,1.909,36,0.9,0,1,0,0.673,NA,NA,NA,NA,"milk",1,1.771,2.473
"1762","visit","glove",17,1,1,2.231,1,0.025,1,1,1,0.735,NA,NA,NA,NA,"frame",0,1.523,2.435
"1762","caring","skirt",38,1,1,2.271,2,0.05,1,1,1,0.673,NA,NA,NA,NA,"can",0,3.113,3.899
"1762","port","cinema",37,1,1,4.573,5,0.125,1,1,1,1.839,NA,NA,NA,NA,"lucy",0,1.784,2.715
"1762","fan","feature",11,1,1,7.181,31,0.775,0,1,0,0.727,NA,NA,NA,NA,"blade",0,1.549,4.722
"1762","bacon","feud",35,1,1,2.191,26,0.65,0,1,0,1.157,NA,NA,NA,NA,"king",0,5.952,8.929
"1762","want","ascent",36,1,1,2.325,20,0.5,1,0,0,0.727,NA,NA,NA,NA,"monkey",0,2.892,3.86
"1762","capital","figure",39,1,1,2.137,10,0.25,1,1,1,0.987,NA,NA,NA,NA,"fight",0,1.477,2.224
"1762","calf","annoy",8,1,27,2.419,38,0.95,0,1,0,0.703,NA,NA,NA,NA,"laugh",0,3.24,4.122
"1762","find","clown",32,1,1,1.754,8,0.2,1,1,1,0.617,NA,NA,NA,NA,"truck",0,3.771,4.555
"1762","replace","roach",25,1,1,3.906,7,0.175,1,0,0,1.159,NA,NA,NA,NA,"log",0,1.39,2.051
"1762","grip","beach",31,1,1,2.594,37,0.925,0,0,1,0.694,NA,NA,NA,NA,"beach",1,1.54,2.442
"1762","link","crisis",5,1,3,2.731,30,0.75,0,1,0,1.331,NA,NA,NA,NA,"bleach",0,25.838,26.669
"1762","climax","saucer",4,1,100,2.583,11,0.275,0,0,1,1.417,NA,NA,NA,NA,"saucer",1,1.447,2.34
"1762","bleach","ruin",28,1,1,3.021,12,0.3,1,1,1,2.397,NA,NA,NA,NA,"road",0,3.753,6.076
"1762","knock","otter",18,1,1,2.107,22,0.55,1,0,0,1.128,NA,NA,NA,NA,"rock",0,1.682,2.63
"1762","need","faucet",34,1,1,2.395,32,0.8,0,1,0,1.049,NA,NA,NA,NA,"brush",0,1.186,4.776
"1762","nerve","bumper",6,1,1,2.959,25,0.625,1,1,1,1.385,NA,NA,NA,NA,"ending",0,1.732,2.518
"1762","fee","chowder",1,1,1,2.717,34,0.85,0,1,0,1.095,NA,NA,NA,NA,"sports",0,2.667,3.595
"1762","date","laugh",29,1,100,2.151,23,0.575,0,0,1,1.167,NA,NA,NA,NA,"raisin",0,2.288,4.913
"1762","biology","temper",7,1,1,2.193,16,0.4,1,0,0,0.743,NA,NA,NA,NA,"microscope",0,1.527,3.279
"1803","grip","beach",36,1,100,9.647,12,0.3,1,1,1,1.247,NA,NA,NA,NA,"beach",1,3.199,7.018
"1803","date","laugh",40,1,72,6.143,25,0.625,1,1,1,0.999,NA,NA,NA,NA,"laugh",1,2.484,6.629
"1803","collect","loyalty",24,1,1,15.527,35,0.875,1,0,0,0.599,NA,NA,NA,NA,"skip",0,28.37,42.074
"1803","prison","loaf",34,1,100,5.367,38,0.95,1,1,1,1.624,NA,NA,NA,NA,"loaf",1,2.409,6.502
"1803","process","joker",8,1,1,6.591,36,0.9,1,0,0,0.734,NA,NA,NA,NA,"skip",0,13.121,15.94
"1803","link","crisis",16,1,1,1.983,10,0.25,0,0,1,0.719,NA,NA,NA,NA,"crisis",1,12.341,16.165
"1803","remind","foam",1,1,1,2.039,16,0.4,0,0,1,0.798,NA,NA,NA,NA,"skip",0,2.449,5.294
"1803","need","faucet",15,1,1,4.047,21,0.525,0,1,0,1.276,NA,NA,NA,NA,"skip",0,7.898,10.573
"1803","nerve","bumper",18,1,1,5.015,5,0.125,0,1,0,0.83,NA,NA,NA,NA,"skip",0,10.853,13.26
"1803","chicken","beet",23,1,1,19.031,19,0.475,0,1,0,0.83,NA,NA,NA,NA,"beet",1,3.669,5.95
"1803","copy","bedroom",26,1,25,10.375,14,0.35,1,0,0,1.303,NA,NA,NA,NA,"skip",0,8.881,11.037
"1803","want","ascent",35,1,1,1.768,1,0.025,0,0,1,0.814,NA,NA,NA,NA,"skip",0,6.537,9.702
"1803","pea","bathtub",2,1,1,2.231,23,0.575,0,0,1,0.679,NA,NA,NA,NA,"bathtub",1,4.254,8.558
"1803","forest","knob",29,1,1,2.079,8,0.2,0,0,1,0.703,NA,NA,NA,NA,"knob",1,3.387,6.478
"1803","mill","feast",25,1,2,2.983,33,0.825,1,0,0,1.423,NA,NA,NA,NA,"skip",0,2.334,4.374
"1803","fan","feature",27,1,1,2.615,40,1,0,0,1,0.767,NA,NA,NA,NA,"skip",0,8.819,10.966
"1803","visit","glove",30,1,1,6.543,22,0.55,0,1,0,1.072,NA,NA,NA,NA,"skip",0,13.461,17.773
"1803","shrink","mafia",22,1,1,6.063,27,0.675,1,0,0,1.159,NA,NA,NA,NA,"skip",0,3.078,5.366
"1803","plant","worm",21,1,1,2.799,20,0.5,0,0,1,0.695,NA,NA,NA,NA,"worm",1,3.791,6.662
"1803","rock","milk",6,1,1,7.663,15,0.375,0,1,0,1.064,NA,NA,NA,NA,"skip",0,9.646,15.845
"1803","find","clown",3,1,1,3.567,26,0.65,0,1,0,1.839,NA,NA,NA,NA,"skip",0,2.963,8.566
"1803","risk","zero",4,1,100,20.909,2,0.05,1,1,1,8.589,NA,NA,NA,NA,"zero",1,10.05,13.246
"1803","bleach","ruin",37,1,1,16.086,31,0.775,1,0,0,1.095,NA,NA,NA,NA,"ruin",1,2.929,10.213
"1803","calf","annoy",17,1,1,2.015,11,0.275,0,0,1,0.711,NA,NA,NA,NA,"annoy",1,3.132,9.87
"1803","glue","force",9,1,1,6.543,4,0.1,0,1,0,2.023,NA,NA,NA,NA,"skip",0,2.133,5.766
"1803","fee","chowder",5,1,1,7.712,37,0.925,1,0,0,0.838,NA,NA,NA,NA,"skip",0,4.571,8.158
"1803","smother","surgery",14,1,21,18.95,17,0.425,1,1,1,1.223,NA,NA,NA,NA,"skip",0,3.861,7.422
"1803","bias","sirloin",28,1,25,5.255,18,0.45,1,1,1,5.207,NA,NA,NA,NA,"skip",0,2.386,6.358
"1803","bullet","walkway",13,1,1,4.6,28,0.7,1,1,1,0.727,NA,NA,NA,NA,"skip",0,13.172,16.628
"1803","banner","glide",33,1,1,2.487,9,0.225,0,1,0,3.911,NA,NA,NA,NA,"skip",0,8.058,11.478
"1803","replace","roach",32,1,1,3.127,32,0.8,1,0,0,1.247,NA,NA,NA,NA,"skip",0,4.645,8.18
"1803","anger","decay",20,1,100,5.758,13,0.325,1,1,1,1.071,NA,NA,NA,NA,"decay",1,8.311,11.702
"1803","capital","figure",11,1,1,8.247,29,0.725,1,0,0,1.263,NA,NA,NA,NA,"skip",0,2.43,5.35
"1803","pork","emperor",38,1,1,2.151,7,0.175,1,1,1,0.839,NA,NA,NA,NA,"power",0,7.458,11.373
"1803","bacon","feud",19,1,1,2.91,39,0.975,0,0,1,2.863,NA,NA,NA,NA,"crisis",0,31.066,35.529
"1803","knock","otter",7,1,1,3.617,34,0.85,1,0,0,1.285,NA,NA,NA,NA,"skip",0,38.02,41.907
"1803","climax","saucer",12,1,1,13.182,24,0.6,0,1,0,0.839,NA,NA,NA,NA,"feature",0,17.391,21.656
"1803","biology","temper",10,1,74,11.111,30,0.75,1,1,1,0.912,NA,NA,NA,NA,"temper",1,4.663,10.774
"1803","caring","skirt",39,1,1,11.046,3,0.075,0,1,0,2.775,NA,NA,NA,NA,"bumper",0,34.249,38.489
"1803","port","cinema",31,1,1,2.072,6,0.15,0,0,1,0.888,NA,NA,NA,NA,"skip",0,13.662,17.996
"2237","remind","foam",12,1,1,2.055,12,0.3,1,1,1,0.864,NA,NA,NA,NA,"skip",0,12.144,16.674
"2237","plant","worm",9,1,1,2.394,40,1,0,0,1,0.864,NA,NA,NA,NA,"worm",1,1.909,3.551
"2237","visit","glove",37,1,1,3.528,18,0.45,0,1,0,0.776,NA,NA,NA,NA,"skip",0,3.198,5.543
"2237","fee","chowder",20,1,1,3.216,9,0.225,0,1,0,1.191,NA,NA,NA,NA,"skip",0,3.613,5.712
"2237","fan","feature",2,1,1,4.783,7,0.175,0,1,0,1.207,NA,NA,NA,NA,"skip",0,12.053,14.302
"2237","pea","bathtub",7,1,30,11.176,30,0.75,1,1,1,0.832,NA,NA,NA,NA,"bathtub",1,3.406,9.327
"2237","rock","milk",8,1,30,6.528,24,0.6,1,1,1,1.68,NA,NA,NA,NA,"milk",1,1.918,3.967
"2237","grip","beach",17,1,1,4.96,14,0.35,0,1,0,1.439,NA,NA,NA,NA,"skip",0,3.053,4.991
"2237","risk","zero",28,1,1,2.64,2,0.05,0,0,1,0.848,NA,NA,NA,NA,"zero",1,12.47,15.713
"2237","prison","loaf",22,1,1,3.207,16,0.4,0,0,1,0.887,NA,NA,NA,NA,"loaf",1,3.405,5.399
"2237","date","laugh",26,1,5,12.902,6,0.15,1,0,0,0.896,NA,NA,NA,NA,"skip",0,2.549,4.591
"2237","anger","decay",24,1,1,2.871,29,0.725,1,0,0,1.159,NA,NA,NA,NA,"skip",0,2.229,4.135
"2237","capital","figure",35,1,1,5.679,28,0.7,1,0,0,1.087,NA,NA,NA,NA,"skip",0,1.822,3.511
"2237","copy","bedroom",4,1,1,3.534,22,0.55,0,1,0,0.767,NA,NA,NA,NA,"skip",0,2.87,4.511
"2237","climax","saucer",6,1,50,11.446,4,0.1,1,1,1,19.367,NA,NA,NA,NA,"saucer",1,2.124,4.078
"2237","bullet","walkway",3,1,10,11.072,35,0.875,1,1,1,1.104,NA,NA,NA,NA,"sidewalk",0,2.006,4.928
"2237","find","clown",16,1,1,2.182,21,0.525,0,0,1,0.959,NA,NA,NA,NA,"skip",0,2.542,4.473
"2237","process","joker",40,1,1,8.166,39,0.975,0,0,1,1.452,NA,NA,NA,NA,"skip",0,2.557,4.447
"2237","collect","loyalty",21,1,1,2.136,3,0.075,0,0,1,0.76,NA,NA,NA,NA,"skip",0,1.877,3.751
"2237","pork","emperor",15,1,35,10.191,19,0.475,1,1,1,0.944,NA,NA,NA,NA,"emporer",0,1.886,4.448
"2237","banner","glide",30,1,1,4.96,38,0.95,0,0,1,1.536,NA,NA,NA,NA,"glide",1,4.501,6.014
"2237","nerve","bumper",14,1,1,2.774,33,0.825,0,0,1,1.031,NA,NA,NA,NA,"skip",0,2.133,3.943
"2237","caring","skirt",36,1,1,5.102,8,0.2,0,1,0,1.342,NA,NA,NA,NA,"skip",0,1.831,3.552
"2237","mill","feast",23,1,1,2.863,37,0.925,1,0,0,0.992,NA,NA,NA,NA,"skip",0,3.893,5.703
"2237","calf","annoy",19,1,1,7.04,1,0.025,1,1,1,0.847,NA,NA,NA,NA,"annoy",1,1.677,4.119
"2237","knock","otter",5,1,1,1.872,17,0.425,0,0,1,1.856,NA,NA,NA,NA,"skip",0,2.158,4.08
"2237","smother","surgery",31,1,1,5.76,13,0.325,0,1,0,1.119,NA,NA,NA,NA,"skip",0,2.901,6.207
"2237","bleach","ruin",38,1,10,11.447,25,0.625,1,1,1,0.792,NA,NA,NA,NA,"skip",0,2.829,5.015
"2237","want","ascent",18,1,1,4.28,23,0.575,0,1,0,0.935,NA,NA,NA,NA,"skip",0,2.221,4.199
"2237","bias","sirloin",13,1,1,4.888,10,0.25,0,0,1,0.615,NA,NA,NA,NA,"skip",0,31.15,32.863
"2237","link","crisis",33,1,35,24.775,5,0.125,1,0,0,2.182,NA,NA,NA,NA,"frantic",0,2.637,4.999
"2237","need","faucet",1,1,1,2.871,11,0.275,0,1,0,1.44,NA,NA,NA,NA,"skip",0,2.029,3.847
"2237","bacon","feud",11,1,1,5.696,31,0.775,1,0,0,0.672,NA,NA,NA,NA,"skip",0,6.462,8.144
"2237","forest","knob",25,1,1,6.759,32,0.8,1,0,0,4.168,NA,NA,NA,NA,"skip",0,2.846,4.72
"2237","replace","roach",27,1,1,3.648,36,0.9,1,0,0,1.04,NA,NA,NA,NA,"skip",0,1.838,3.56
"2237","port","cinema",34,1,20,8.136,15,0.375,1,1,1,2.199,NA,NA,NA,NA,"skip",0,2.286,4.328
"2237","biology","temper",32,1,1,6.976,20,0.5,0,1,0,1.143,NA,NA,NA,NA,"skip",0,6.094,7.744
"2237","chicken","beet",39,1,10,15.454,26,0.65,1,1,1,0.967,NA,NA,NA,NA,"beet",1,2.79,4.096
"2237","shrink","mafia",29,1,1,2.911,27,0.675,1,0,0,0.696,NA,NA,NA,NA,"skip",0,2.87,4.656
"2237","glue","force",10,1,1,6.983,34,0.85,1,0,0,1.046,NA,NA,NA,NA,"skip",0,1.751,3.52
"3109","anger","decay",40,1,28,4.272,39,0.975,0,1,0,1.448,NA,NA,NA,NA,"joker",0,17.867,21.132
"3109","smother","surgery",17,1,74,2.208,38,0.95,1,0,0,1.468,NA,NA,NA,NA,"skirt",0,12.496,15.287
"3109","risk","zero",34,1,27,2.971,10,0.25,0,1,0,1.301,NA,NA,NA,NA,"annoy",0,10.243,12.513
"3109","bullet","walkway",23,1,68,2.167,9,0.225,0,0,1,2.044,NA,NA,NA,NA,"nerve",0,12.596,14.859
"3109","replace","roach",12,1,84,2.343,5,0.125,1,1,1,2.128,NA,NA,NA,NA,"bumper",0,3.452,6.354
"3109","shrink","mafia",18,1,76,4.196,29,0.725,1,1,1,1.985,NA,NA,NA,NA,"need",0,15.244,16.89
"3109","want","ascent",4,1,82,18.112,14,0.35,1,0,0,2.148,NA,NA,NA,NA,"glue",0,8.634,10.73
"3109","fan","feature",19,1,76,2.683,11,0.275,1,1,1,1.393,NA,NA,NA,NA,"pork",0,5.056,9.088
"3109","biology","temper",6,1,27,7.128,17,0.425,0,1,0,1.33,NA,NA,NA,NA,"science",0,7.76,10.481
"3109","banner","glide",10,1,78,3.453,30,0.75,1,0,0,1.983,NA,NA,NA,NA,"feature",0,10.864,15.21
"3109","collect","loyalty",1,1,17,4.059,8,0.2,0,1,0,1.485,NA,NA,NA,NA,"worm",0,4.304,5.647
"3109","glue","force",32,1,74,3.083,28,0.7,0,0,1,1.184,NA,NA,NA,NA,"force",1,12.098,14.528
"3109","knock","otter",37,1,16,3.987,26,0.65,0,1,0,1.04,NA,NA,NA,NA,"want",0,13.783,15.697
"3109","date","laugh",39,1,16,3.388,16,0.4,0,1,0,1.371,NA,NA,NA,NA,"decay",0,10.333,12.677
"3109","remind","foam",30,1,20,3.452,31,0.775,0,1,0,2.144,NA,NA,NA,NA,"climax",0,5.886,12.702
"3109","caring","skirt",7,1,99,4.454,7,0.175,1,1,1,1.25,NA,NA,NA,NA,"skirt",1,18.891,20.955
"3109","bleach","ruin",31,1,31,5.434,33,0.825,1,0,0,1.688,NA,NA,NA,NA,"milk",0,34.487,35.702
"3109","mill","feast",25,1,81,2.923,15,0.375,1,1,1,2.121,NA,NA,NA,NA,"banner",0,10.379,12.587
"3109","port","cinema",33,1,68,2.409,18,0.45,0,0,1,1.734,NA,NA,NA,NA,"Feast",0,10.9,12.929
"3109","climax","saucer",20,1,31,3.202,2,0.05,1,0,0,1.02,NA,NA,NA,NA,"saucer",1,49.741,52.274
"3109","need","faucet",5,1,9,5.165,40,1,0,1,0,0.932,NA,NA,NA,NA,"faucet",1,15.49,18.619
"3109","forest","knob",26,1,65,2.656,23,0.575,0,0,1,1.098,NA,NA,NA,NA,"weed",0,3.067,4.421
"3109","capital","figure",27,1,78,3.217,32,0.8,1,0,0,1.529,NA,NA,NA,NA,"figure",1,21.315,24.134
"3109","calf","annoy",22,1,32,4.756,20,0.5,1,0,0,2.09,NA,NA,NA,NA,"laugh",0,8.586,10.528
"3109","pork","emperor",3,1,57,3.099,6,0.15,0,0,1,0.956,NA,NA,NA,NA,"sirloin",0,2.226,6.256
"3109","bias","sirloin",28,1,18,16.131,37,0.925,0,1,0,2.045,NA,NA,NA,NA,"copy",0,5.059,7.018
"3109","grip","beach",21,1,69,2.942,21,0.525,0,0,1,1.087,NA,NA,NA,NA,"beach",1,27.875,30.175
"3109","copy","bedroom",11,1,79,3.645,3,0.075,1,1,1,1.196,NA,NA,NA,NA,"bedroom",1,8.432,11.373
"3109","rock","milk",24,1,71,3.981,25,0.625,0,0,1,2.091,NA,NA,NA,NA,"solid",0,3.219,5.706
"3109","bacon","feud",2,1,86,3.592,34,0.85,1,1,1,1.079,NA,NA,NA,NA,"pork",0,2.916,5.618
"3109","fee","chowder",29,1,93,4.311,12,0.3,1,1,1,2.53,NA,NA,NA,NA,"date",0,5.796,7.442
"3109","chicken","beet",15,1,92,7.356,13,0.325,1,1,1,3.704,NA,NA,NA,NA,"dinner",0,1.868,4.43
"3109","process","joker",14,1,71,3.584,19,0.475,0,0,1,1.207,NA,NA,NA,NA,"port",0,8.829,12.836
"3109","find","clown",38,1,1,7.675,1,0.025,0,0,1,12.477,NA,NA,NA,NA,"access",0,9.547,12.739
"3109","nerve","bumper",13,1,29,2.784,22,0.55,1,0,0,1.541,NA,NA,NA,NA,"bumper",1,21.02,23.334
"3109","prison","loaf",8,1,73,2.237,27,0.675,0,0,1,0.866,NA,NA,NA,NA,"suit",0,4.96,6.682
"3109","pea","bathtub",36,1,56,22.738,36,0.9,1,0,0,10.239,NA,NA,NA,NA,"grip",0,19.158,21.785
"3109","visit","glove",35,1,26,3.759,24,0.6,0,1,0,1.714,NA,NA,NA,NA,"bullet",0,6.165,9.138
"3109","plant","worm",9,1,72,2.387,4,0.1,1,0,0,1.155,NA,NA,NA,NA,"chowder ",0,2.375,6.317
"3109","link","crisis",16,1,78,7.172,35,0.875,1,1,1,2.124,NA,NA,NA,NA,"walkway",0,6.105,9.574
"4214","biology","temper",15,1,1,1.638,30,0.75,1,1,1,0.631,NA,NA,NA,NA,"temper",1,3.501,5.412
"4214","rock","milk",24,1,1,1.55,35,0.875,1,1,1,1.255,NA,NA,NA,NA,"SKIP",0,2.092,2.895
"4214","bias","sirloin",27,1,1,2.006,36,0.9,0,0,1,1.015,NA,NA,NA,NA,"SKIP",0,24.437,24.99
"4214","climax","saucer",9,1,1,1.846,37,0.925,1,1,1,0.91,NA,NA,NA,NA,"SKIP",0,1.483,1.951
"4214","replace","roach",2,1,1,1.279,15,0.375,0,1,0,0.71,NA,NA,NA,NA,"SKIP",0,1.195,1.639
"4214","capital","figure",6,1,1,4.895,3,0.075,1,0,0,0.862,NA,NA,NA,NA,"figure",1,1.999,4.224
"4214","date","laugh",34,1,1,3.135,4,0.1,1,0,0,0.974,NA,NA,NA,NA,"SKIP",0,1.272,1.702
"4214","bleach","ruin",10,1,1,2.983,33,0.825,1,1,1,0.614,NA,NA,NA,NA,"SKIP",0,2.084,2.676
"4214","link","crisis",18,1,1,12.254,16,0.4,0,1,0,1.087,NA,NA,NA,NA,"SKIP",0,0.845,1.226
"4214","copy","bedroom",40,1,1,1.926,8,0.2,1,0,0,0.951,NA,NA,NA,NA,"SKIP",0,0.996,2.647
"4214","plant","worm",29,1,100,10.286,19,0.475,0,1,0,1.238,NA,NA,NA,NA,"worm",1,7.654,9.598
"4214","chicken","beet",17,1,1,38.453,1,0.025,1,0,0,18.197,NA,NA,NA,NA,"beet",1,5.682,6.816
"4214","anger","decay",39,1,100,4.167,28,0.7,0,0,1,1.022,NA,NA,NA,NA,"decay",1,1.657,3.127
"4214","calf","annoy",38,1,100,2.359,26,0.65,0,0,1,0.702,NA,NA,NA,NA,"SKIP",0,1.625,2.111
"4214","smother","surgery",12,1,100,3.646,24,0.6,0,1,0,0.807,NA,NA,NA,NA,"sugary",0,2.849,5.863
"4214","remind","foam",19,1,1,2.166,29,0.725,1,1,1,0.783,NA,NA,NA,NA,"SKIP",0,0.985,1.439
"4214","grip","beach",14,1,76,9.536,10,0.25,0,1,0,1.151,NA,NA,NA,NA,"SKIP",0,0.787,1.199
"4214","fee","chowder",7,1,1,4.693,2,0.05,1,1,1,6.167,NA,NA,NA,NA,"SKIP",0,0.797,1.286
"4214","visit","glove",16,1,1,1.526,23,0.575,0,0,1,0.718,NA,NA,NA,NA,"SKIP",0,0.859,1.23
"4214","forest","knob",3,1,1,5.638,32,0.8,1,1,1,0.934,NA,NA,NA,NA,"SKIP",0,0.793,1.215
"4214","bacon","feud",13,1,1,1.79,40,1,0,0,1,0.703,NA,NA,NA,NA,"SKIP",0,0.733,1.119
"4214","fan","feature",8,1,1,1.807,5,0.125,1,0,0,0.894,NA,NA,NA,NA,"SKIP",0,0.789,1.206
"4214","process","joker",1,1,1,1.774,25,0.625,0,1,0,0.822,NA,NA,NA,NA,"SKIP",0,0.824,1.215
"4214","want","ascent",32,1,1,1.966,14,0.35,0,1,0,1.109,NA,NA,NA,NA,"SKIP",0,0.743,1.159
"4214","banner","glide",36,1,1,1.576,22,0.55,0,1,0,0.718,NA,NA,NA,NA,"SKIP",0,0.842,1.239
"4214","collect","loyalty",4,1,1,1.47,38,0.95,0,0,1,0.71,NA,NA,NA,NA,"SKIP",0,0.83,1.344
"4214","pork","emperor",26,1,100,2.502,31,0.775,0,0,1,0.67,NA,NA,NA,NA,"emperor",1,1.646,4.205
"4214","mill","feast",22,1,1,1.654,9,0.225,0,0,1,0.903,NA,NA,NA,NA,"SKIP",0,0.833,1.31
"4214","caring","skirt",28,1,1,2.557,27,0.675,1,1,1,0.963,NA,NA,NA,NA,"SKIP",0,0.727,1.64
"4214","glue","force",37,1,1,1.374,13,0.325,1,0,0,0.886,NA,NA,NA,NA,"SKIP",0,0.966,1.31
"4214","pea","bathtub",30,1,1,1.903,11,0.275,1,0,0,0.871,NA,NA,NA,NA,"SKIP",0,1.287,1.703
"4214","shrink","mafia",33,1,1,1.782,6,0.15,1,0,0,6.791,NA,NA,NA,NA,"SKIP",0,0.828,1.208
"4214","prison","loaf",31,1,100,3.366,20,0.5,0,0,1,0.558,NA,NA,NA,NA,"loaf",1,1.402,2.822
"4214","nerve","bumper",21,1,1,1.99,21,0.525,0,1,0,0.718,NA,NA,NA,NA,"SKIP",0,0.792,1.359
"4214","port","cinema",5,1,1,2.334,18,0.45,0,1,0,0.727,NA,NA,NA,NA,"SKIP",0,0.776,1.647
"4214","risk","zero",20,1,1,1.742,39,0.975,1,1,1,0.68,NA,NA,NA,NA,"zero",1,1.184,2.551
"4214","knock","otter",25,1,1,1.526,12,0.3,1,0,0,0.735,NA,NA,NA,NA,"SKIP",0,1.338,1.727
"4214","need","faucet",11,1,1,3.207,7,0.175,1,0,0,0.822,NA,NA,NA,NA,"SKIP",0,0.78,1.198
"4214","bullet","walkway",23,1,1,1.382,17,0.425,0,0,1,0.943,NA,NA,NA,NA,"SKIP",0,1.157,1.548
"4214","find","clown",35,1,1,2.126,34,0.85,1,1,1,0.806,NA,NA,NA,NA,"SKIP",0,0.96,1.511
"5195","bleach","ruin",6,1,77,1.951,19,0.475,1,0,0,0.678,NA,NA,NA,NA,"ruin",1,3.343,4.595
"5195","nerve","bumper",11,1,21,3.479,1,0.025,0,1,0,0.581,NA,NA,NA,NA,"bumper",1,9.257,11.398
"5195","date","laugh",13,1,41,10.679,36,0.9,0,1,0,0.839,NA,NA,NA,NA,"laugh",1,3.383,7.238
"5195","pork","emperor",8,1,75,2.055,14,0.35,1,0,0,0.6,NA,NA,NA,NA,"feud",0,2.759,4.775
"5195","risk","zero",40,1,80,1.671,6,0.15,1,0,0,0.703,NA,NA,NA,NA,"zero",1,3.009,4.165
"5195","mill","feast",22,1,69,1.942,30,0.75,0,0,1,1.255,NA,NA,NA,NA,"rock",0,11.782,13.334
"5195","copy","bedroom",20,1,68,1.774,3,0.075,1,0,0,0.687,NA,NA,NA,NA,"bed",0,4.78,14.066
"5195","remind","foam",33,1,64,5.703,40,1,0,0,1,0.655,NA,NA,NA,NA,"foam",1,8.095,12.255
"5195","calf","annoy",14,1,82,6.975,26,0.65,1,1,1,3.607,NA,NA,NA,NA,"annoy",1,3.43,8.152
"5195","biology","temper",1,1,88,2.591,11,0.275,1,1,1,1.847,NA,NA,NA,NA,"temper",1,1.873,5.842
"5195","process","joker",29,1,68,5.366,9,0.225,0,0,1,0.991,NA,NA,NA,NA,"joker",1,4.473,6.354
"5195","find","clown",26,1,42,8.751,28,0.7,0,1,0,0.862,NA,NA,NA,NA,"clown",1,1.369,7.847
"5195","glue","force",5,1,68,6.176,15,0.375,0,0,1,0.583,NA,NA,NA,NA,"force",1,11.026,13.553
"5195","grip","beach",21,1,73,5.311,27,0.675,0,0,1,0.783,NA,NA,NA,NA,"beach",1,11.299,14.196
"5195","need","faucet",2,1,63,9.743,17,0.425,1,0,0,5.381,NA,NA,NA,NA,"glide",0,20.97,23.837
"5195","want","ascent",7,1,73,4.911,37,0.925,1,0,0,5.334,NA,NA,NA,NA,"feature",0,13.018,16.506
"5195","chicken","beet",32,1,83,2.118,34,0.85,1,1,1,1.087,NA,NA,NA,NA,"sugar",0,15.38,28.343
"5195","bias","sirloin",16,1,65,7.543,8,0.2,0,0,1,0.711,NA,NA,NA,NA,"sirloin",1,18.604,20.623
"5195","shrink","mafia",12,1,75,2.423,2,0.05,1,0,0,0.991,NA,NA,NA,NA,"mafia",1,1.212,5.463
"5195","visit","glove",3,1,74,5.111,20,0.5,1,1,1,0.927,NA,NA,NA,NA,"glowing",0,6.259,12.255
"5195","prison","loaf",17,1,73,13.087,16,0.4,0,0,1,0.871,NA,NA,NA,NA,"loaf",1,1.587,2.978
"5195","plant","worm",38,1,42,9.383,39,0.975,1,0,0,0.743,NA,NA,NA,NA,"worm",1,1.63,3.043
"5195","banner","glide",34,1,74,4.383,4,0.1,1,1,1,0.703,NA,NA,NA,NA,"slide",0,2.318,4.245
"5195","fee","chowder",24,1,37,7.607,38,0.95,0,1,0,0.607,NA,NA,NA,NA,"chowder",1,3.015,5.087
"5195","bullet","walkway",9,1,69,4.912,23,0.575,0,0,1,0.59,NA,NA,NA,NA,"walkway",1,2.012,20.092
"5195","rock","milk",25,1,83,9.054,13,0.325,1,1,1,5.215,NA,NA,NA,NA,"mill",0,1.564,3.403
"5195","smother","surgery",27,1,22,9.448,22,0.55,0,1,0,0.623,NA,NA,NA,NA,"table",0,19.774,21.942
"5195","climax","saucer",23,1,23,2.549,10,0.25,0,1,0,0.655,NA,NA,NA,NA,"saucer",1,3.823,5.685
"5195","link","crisis",30,1,74,6.231,18,0.45,0,0,1,0.766,NA,NA,NA,NA,"crisis",1,5.5,8.322
"5195","fan","feature",37,1,27,8.367,5,0.125,0,1,0,1.008,NA,NA,NA,NA,"collect",0,20.258,22.074
"5195","bacon","feud",35,1,89,2.696,24,0.6,1,1,1,0.623,NA,NA,NA,NA,"feud",1,4.375,8.833
"5195","port","cinema",15,1,29,2.983,25,0.625,0,1,0,0.743,NA,NA,NA,NA,"cinema",1,3.477,6.188
"5195","caring","skirt",10,1,79,3.143,29,0.725,1,1,1,0.686,NA,NA,NA,NA,"skirt",1,44.71,46.054
"5195","anger","decay",36,1,81,8.719,7,0.175,1,1,1,2.928,NA,NA,NA,NA,"bottle",0,3.004,24.691
"5195","forest","knob",4,1,79,1.67,12,0.3,1,0,0,0.503,NA,NA,NA,NA,"know",0,5.498,6.727
"5195","replace","roach",19,1,32,3.135,35,0.875,0,1,0,0.743,NA,NA,NA,NA,"roach",1,14.87,16.549
"5195","pea","bathtub",28,1,13,2.223,21,0.525,0,1,0,0.695,NA,NA,NA,NA,"bathtub",1,12.399,14.6
"5195","knock","otter",31,1,87,2.536,32,0.8,1,1,1,1.568,NA,NA,NA,NA,"otter",1,4.272,5.449
"5195","capital","figure",39,1,70,2.71,31,0.775,0,0,1,0.632,NA,NA,NA,NA,"figure",1,9.686,11.007
"5195","collect","loyalty",18,1,48,9.192,33,0.825,1,0,0,0.759,NA,NA,NA,NA,"shaker",0,4.987,14.972
"5550","risk","zero",40,1,90,8.463,30,0.75,0,0,1,7.231,NA,NA,NA,NA,"skip",0,8.007,9.586
"5550","date","laugh",4,1,80,11.735,23,0.575,1,1,1,1.599,NA,NA,NA,NA,"laugh",1,1.156,2.695
"5550","mill","feast",2,1,70,6.449,16,0.4,1,1,1,5.246,NA,NA,NA,NA,"feast",1,0.987,3.343
"5550","nerve","bumper",9,1,80,4.67,6,0.15,1,1,1,1.255,NA,NA,NA,NA,"skip",0,16.372,23.519
"5550","capital","figure",13,1,10,5.767,22,0.55,0,1,0,0.655,NA,NA,NA,NA,"skip",0,4.205,6.064
"5550","banner","glide",34,1,14,9.91,3,0.075,0,1,0,0.647,NA,NA,NA,NA,"glide",1,2.252,3.688
"5550","pea","bathtub",21,1,20,8.143,15,0.375,1,1,1,0.831,NA,NA,NA,NA,"skip",0,1.228,2.632
"5550","collect","loyalty",7,1,9,4.135,18,0.45,1,0,0,0.695,NA,NA,NA,NA,"skip",0,1.084,2.567
"5550","fee","chowder",29,1,85,4.758,32,0.8,0,0,1,1.104,NA,NA,NA,NA,"skip",0,1.428,3.312
"5550","find","clown",5,1,10,6.518,24,0.6,1,0,0,1.047,NA,NA,NA,NA,"skip",0,1.227,2.727
"5550","chicken","beet",22,1,90,5.782,35,0.875,0,0,1,0.727,NA,NA,NA,NA,"beet",1,1.436,2.856
"5550","bleach","ruin",10,1,84,6.919,31,0.775,0,0,1,1.047,NA,NA,NA,NA,"ruin",1,0.988,2.647
"5550","want","ascent",15,1,19,8.407,12,0.3,0,1,0,0.623,NA,NA,NA,NA,"skip",0,1.476,3.848
"5550","biology","temper",28,1,75,7.575,2,0.05,1,1,1,1.191,NA,NA,NA,NA,"temper",1,1.66,3.384
"5550","replace","roach",1,1,10,6.287,4,0.1,1,1,1,1.271,NA,NA,NA,NA,"skip",0,1.259,2.711
"5550","grip","beach",3,1,9,8.767,8,0.2,1,0,0,0.567,NA,NA,NA,NA,"skip",0,2.724,4.135
"5550","process","joker",25,1,10,4.223,11,0.275,1,0,0,1.047,NA,NA,NA,NA,"skip",0,0.972,2.52
"5550","glue","force",8,1,80,6.551,33,0.825,1,1,1,1.375,NA,NA,NA,NA,"force",1,0.996,2.592
"5550","port","cinema",39,1,10,5.599,34,0.85,1,0,0,0.96,NA,NA,NA,NA,"skip",0,1.164,2.719
"5550","bacon","feud",32,1,79,6.431,20,0.5,1,1,1,0.671,NA,NA,NA,NA,"feud",1,2.044,3.84
"5550","shrink","mafia",17,1,10,4.287,7,0.175,0,1,0,0.639,NA,NA,NA,NA,"mafia",1,2.523,4.543
"5550","copy","bedroom",24,1,9,4.248,37,0.925,1,0,0,0.702,NA,NA,NA,NA,"bedroom",1,2.988,6.256
"5550","forest","knob",18,1,85,6.151,28,0.7,0,0,1,1.239,NA,NA,NA,NA,"knob",1,1.515,3.055
"5550","caring","skirt",35,1,11,6.925,5,0.125,0,1,0,0.695,NA,NA,NA,NA,"skip",0,8.132,10.119
"5550","remind","foam",6,1,9,3.559,17,0.425,1,0,0,0.687,NA,NA,NA,NA,"skip",0,1.204,2.952
"5550","smother","surgery",20,1,30,5.159,29,0.725,0,1,0,1.862,NA,NA,NA,NA,"skip",0,8.053,11.792
"5550","climax","saucer",30,1,9,5.927,1,0.025,1,0,0,0.647,NA,NA,NA,NA,"skip",0,1.379,3.694
"5550","bullet","walkway",23,1,85,4.535,13,0.325,0,0,1,0.935,NA,NA,NA,NA,"walkway",1,1.253,4.024
"5550","knock","otter",19,1,10,5.143,36,0.9,1,0,0,0.831,NA,NA,NA,NA,"skip",0,1.363,2.935
"5550","need","faucet",26,1,9,5.111,39,0.975,1,0,0,0.823,NA,NA,NA,NA,"skip",0,3.883,5.519
"5550","plant","worm",12,1,90,4.774,14,0.35,0,0,1,1.287,NA,NA,NA,NA,"skip",0,7.147,8.919
"5550","pork","emperor",33,1,90,2.727,10,0.25,0,0,1,0.719,NA,NA,NA,NA,"emperor",1,1.123,3.455
"5550","fan","feature",14,1,80,7.839,25,0.625,0,0,1,5.927,NA,NA,NA,NA,"feature",1,1.211,2.983
"5550","calf","annoy",16,1,70,5.783,38,0.95,1,1,1,0.711,NA,NA,NA,NA,"annoy",1,1.164,2.952
"5550","link","crisis",36,1,10,3.518,19,0.475,0,1,0,0.656,NA,NA,NA,NA,"crisis",1,1.156,5.584
"5550","visit","glove",38,1,10,5.599,40,1,0,1,0,0.831,NA,NA,NA,NA,"skip",0,1.684,3.392
"5550","rock","milk",31,1,80,4.527,9,0.225,1,1,1,1.103,NA,NA,NA,NA,"milk",1,1.091,2.679
"5550","prison","loaf",11,1,89,5.559,27,0.675,0,0,1,1.191,NA,NA,NA,NA,"loaf",1,1.924,3.335
"5550","anger","decay",27,1,15,6.67,21,0.525,0,1,0,1.391,NA,NA,NA,NA,"skip",0,1.563,3.663
"5550","bias","sirloin",37,1,10,3.711,26,0.65,0,1,0,0.727,NA,NA,NA,NA,"skip",0,3.667,5.191
"5753","find","clown",22,1,42,2.598,27,0.675,0,0,1,0.759,NA,NA,NA,NA,"fan",0,13.151,18.468
"5753","climax","saucer",40,1,56,5.337,11,0.275,1,1,1,2.902,NA,NA,NA,NA,"fee",0,34.484,36.233
"5753","biology","temper",16,1,48,2.308,17,0.425,0,1,0,0.986,NA,NA,NA,NA,"link",0,17.167,18.947
"5753","forest","knob",13,1,58,3.563,35,0.875,1,0,0,3.411,NA,NA,NA,NA,"knob",1,7.629,9.557
"5753","bullet","walkway",29,1,65,2.192,28,0.7,1,1,1,0.796,NA,NA,NA,NA,"walkway",1,15.094,17.92
"5753","capital","figure",26,1,40,20.843,6,0.15,0,0,1,12.932,NA,NA,NA,NA,"grip",0,17.716,19.635
"5753","nerve","bumper",25,1,60,1.8,9,0.225,1,0,0,0.645,NA,NA,NA,NA,"process",0,14.275,17.211
"5753","plant","worm",8,1,60,2.486,2,0.05,1,0,0,2.802,NA,NA,NA,NA,"worm",1,2.329,4.694
"5753","collect","loyalty",27,1,57,1.964,3,0.075,1,0,0,0.783,NA,NA,NA,NA,"loyalty",1,6.132,10.406
"5753","process","joker",12,1,63,2.789,1,0.025,1,1,1,0.886,NA,NA,NA,NA,"fee",0,12.132,13.526
"5753","replace","roach",37,1,58,8.966,14,0.35,1,1,1,0.632,NA,NA,NA,NA,"shrink",0,6.992,9.707
"5753","banner","glide",10,1,54,3.17,10,0.25,0,1,0,1.267,NA,NA,NA,NA,"calf",0,5.571,8.006
"5753","calf","annoy",38,1,62,2.889,16,0.4,1,1,1,0.735,NA,NA,NA,NA,"annoy",1,3.469,5.901
"5753","shrink","mafia",36,1,54,1.419,7,0.175,0,1,0,0.798,NA,NA,NA,NA,"riot",0,7.896,14.491
"5753","pork","emperor",32,1,56,9.295,24,0.6,1,1,1,0.734,NA,NA,NA,NA,"emperor",1,4.086,7.461
"5753","caring","skirt",7,1,51,1.609,20,0.5,0,1,0,0.671,NA,NA,NA,NA,"fan",0,5.042,6.918
"5753","copy","bedroom",35,1,43,2.168,23,0.575,0,1,0,2.929,NA,NA,NA,NA,"glide",0,4.564,6.758
"5753","pea","bathtub",18,1,57,1.279,39,0.975,1,0,0,1.026,NA,NA,NA,NA,"bathtub",1,2.371,5.85
"5753","knock","otter",14,1,45,2.268,38,0.95,0,0,1,0.858,NA,NA,NA,NA,"otter",1,3.871,6.344
"5753","smother","surgery",21,1,66,2.319,4,0.1,1,0,0,0.989,NA,NA,NA,NA,"surgery",1,2.542,5.177
"5753","want","ascent",23,1,60,1.583,29,0.725,1,0,0,0.582,NA,NA,NA,NA,"zero",0,4.609,8.336
"5753","fan","feature",19,1,39,2.269,21,0.525,0,1,0,0.634,NA,NA,NA,NA,"feature",1,3.426,10.647
"5753","chicken","beet",24,1,80,3.398,5,0.125,1,1,1,1.064,NA,NA,NA,NA,"beet",1,2.618,4.732
"5753","bleach","ruin",17,1,67,2.32,33,0.825,1,1,1,0.86,NA,NA,NA,NA,"grip",0,8.146,10.265
"5753","mill","feast",15,1,42,2.231,34,0.85,0,0,1,0.861,NA,NA,NA,NA,"riot",0,66.756,68.318
"5753","link","crisis",4,1,61,2.053,8,0.2,1,0,0,1.318,NA,NA,NA,NA,"crisis",1,7.121,9.022
"5753","visit","glove",11,1,36,2.143,26,0.65,0,0,1,0.835,NA,NA,NA,NA,"place",0,3.408,5.304
"5753","rock","milk",5,1,61,1.9,32,0.8,1,0,0,0.608,NA,NA,NA,NA,"shrink",0,5.864,9.29
"5753","fee","chowder",1,1,54,2.751,13,0.325,0,0,1,0.847,NA,NA,NA,NA,"toll",0,4.04,5.494
"5753","port","cinema",34,1,54,2.344,12,0.3,0,0,1,0.594,NA,NA,NA,NA,"place",0,2.954,4.556
"5753","anger","decay",39,1,36,2.206,40,1,0,1,0,1.001,NA,NA,NA,NA,"despair",0,11.817,13.834
"5753","bias","sirloin",28,1,55,2.701,19,0.475,0,0,1,0.696,NA,NA,NA,NA,"sirloin",1,14.542,16.703
"5753","bacon","feud",31,1,67,4.119,31,0.775,1,1,1,1.761,NA,NA,NA,NA,"feud",1,2.322,6.815
"5753","glue","force",20,1,67,2.205,22,0.55,1,1,1,0.747,NA,NA,NA,NA,"force",1,8.037,9.823
"5753","prison","loaf",9,1,55,2.194,25,0.625,0,1,0,0.799,NA,NA,NA,NA,"cell",0,2.959,4.39
"5753","risk","zero",6,1,65,1.584,18,0.45,1,0,0,1.294,NA,NA,NA,NA,"zero",1,2.242,3.769
"5753","date","laugh",30,1,42,3.082,37,0.925,0,1,0,0.772,NA,NA,NA,NA,"time",0,3.563,5.177
"5753","remind","foam",33,1,35,5.02,30,0.75,0,0,1,1.089,NA,NA,NA,NA,"way",0,3.85,6.295
"5753","need","faucet",2,1,37,2.625,15,0.375,0,0,1,0.748,NA,NA,NA,NA,"mafia",0,3.649,5.532
"5753","grip","beach",3,1,39,1.546,36,0.9,0,1,0,0.874,NA,NA,NA,NA,"bleach",0,16.544,18.784
"6745","forest","knob",35,1,65,1.931,7,0.175,1,0,0,6.633,NA,NA,NA,NA,"refrain",0,2.683,5.31
"6745","need","faucet",37,1,16,2.039,17,0.425,0,1,0,1.067,NA,NA,NA,NA,"attain",0,3.313,5.841
"6745","knock","otter",15,1,78,2.377,26,0.65,1,1,1,0.97,NA,NA,NA,NA,"door",0,2.202,3.732
"6745","want","ascent",16,1,10,1.669,12,0.3,0,1,0,0.962,NA,NA,NA,NA,"facilitate",0,2.507,7.027
"6745","bullet","walkway",39,1,22,1.968,3,0.075,1,0,0,0.883,NA,NA,NA,NA,"train",0,1.633,5.117
"6745","banner","glide",40,1,69,1.829,37,0.925,0,0,1,0.985,NA,NA,NA,NA,"frame",0,3.005,4.995
"6745","plant","worm",18,1,68,1.985,35,0.875,0,0,1,1.154,NA,NA,NA,NA,"food",0,1.489,3.07
"6745","biology","temper",19,1,84,1.716,27,0.675,1,1,1,0.921,NA,NA,NA,NA,"detain",0,3.523,7.089
"6745","shrink","mafia",3,1,20,1.946,38,0.95,1,0,0,0.868,NA,NA,NA,NA,"wrap",0,1.807,3.678
"6745","nerve","bumper",31,1,13,1.732,13,0.325,0,1,0,0.883,NA,NA,NA,NA,"ending",0,1.369,3.724
"6745","mill","feast",10,1,19,3.048,10,0.25,1,0,0,1.083,NA,NA,NA,NA,"option",0,2.608,6.682
"6745","glue","force",21,1,95,3.778,6,0.15,1,0,0,0.946,NA,NA,NA,NA,"force",1,2.806,8.783
"6745","bias","sirloin",30,1,33,4.063,25,0.625,0,0,1,4.023,NA,NA,NA,NA,"latteral",0,2.814,5.447
"6745","caring","skirt",24,1,79,1.986,29,0.725,1,1,1,0.87,NA,NA,NA,NA,"sincere",0,4.771,7.805
"6745","capital","figure",7,1,77,2.139,30,0.75,1,1,1,1.054,NA,NA,NA,NA,"detain",0,11.473,15.764
"6745","collect","loyalty",36,1,16,1.715,4,0.1,0,1,0,0.87,NA,NA,NA,NA,"resource",0,2.077,4.58
"6745","bleach","ruin",13,1,100,3.655,2,0.05,1,1,1,1.113,NA,NA,NA,NA,"ruin",1,1.579,3.609
"6745","date","laugh",17,1,60,2.009,40,1,0,0,1,0.921,NA,NA,NA,NA,"arrival",0,1.643,4.218
"6745","prison","loaf",1,1,18,1.808,15,0.375,1,0,0,0.876,NA,NA,NA,NA,"reform",0,1.856,7.258
"6745","bacon","feud",2,1,79,4.013,28,0.7,1,1,1,2.983,NA,NA,NA,NA,"emperor",0,2.428,5.696
"6745","process","joker",14,1,13,1.708,19,0.475,0,1,0,0.878,NA,NA,NA,NA,"attain",0,1.747,4.032
"6745","anger","decay",25,1,10,1.792,18,0.45,0,1,0,1.069,NA,NA,NA,NA,"guilt",0,2.401,5.125
"6745","fan","feature",28,1,13,1.732,20,0.5,0,1,0,0.899,NA,NA,NA,NA,"revolve",0,1.834,4.326
"6745","climax","saucer",20,1,9,1.961,11,0.275,0,1,0,0.762,NA,NA,NA,NA,"arrival",0,2.036,4.623
"6745","grip","beach",4,1,22,1.699,32,0.8,1,0,0,0.87,NA,NA,NA,NA,"shrink",0,5.387,7.665
"6745","rock","milk",33,1,16,2.439,9,0.225,0,1,0,0.768,NA,NA,NA,NA,"waste",0,2.908,5.005
"6745","replace","roach",12,1,70,2.715,16,0.4,0,0,1,2.048,NA,NA,NA,NA,"happen",0,5.257,7.677
"6745","visit","glove",23,1,72,2.131,24,0.6,0,0,1,1.013,NA,NA,NA,NA,"now",0,3.474,6.504
"6745","find","clown",29,1,70,2.182,31,0.775,0,0,1,1.177,NA,NA,NA,NA,"locate",0,2.067,4.648
"6745","port","cinema",22,1,76,3.167,23,0.575,1,1,1,0.869,NA,NA,NA,NA,"call",0,2.576,4.233
"6745","risk","zero",11,1,15,2.193,36,0.9,0,1,0,0.9,NA,NA,NA,NA,"factor",0,1.483,3.577
"6745","remind","foam",8,1,76,1.846,22,0.55,1,1,1,1.47,NA,NA,NA,NA,"appoint",0,2.916,5.973
"6745","pea","bathtub",32,1,89,4.841,8,0.2,1,0,0,0.884,NA,NA,NA,NA,"bathtub",1,1.98,6.303
"6745","pork","emperor",27,1,83,2.285,5,0.125,1,0,0,1.354,NA,NA,NA,NA,"emperor",1,1.176,4.272
"6745","fee","chowder",6,1,18,3.885,21,0.525,1,0,0,0.99,NA,NA,NA,NA,"billing",0,2.761,4.877
"6745","smother","surgery",5,1,95,1.669,39,0.975,1,1,1,1.003,NA,NA,NA,NA,"detain",0,5.912,11.796
"6745","link","crisis",26,1,28,2.193,34,0.85,0,0,1,1.04,NA,NA,NA,NA,"combine",0,3.225,6.272
"6745","copy","bedroom",34,1,7,5.553,1,0.025,0,0,1,5.782,NA,NA,NA,NA,"locate",0,2.321,5.041
"6745","calf","annoy",9,1,35,2.17,33,0.825,0,0,1,0.958,NA,NA,NA,NA,"child",0,3.05,5.002
"6745","chicken","beet",38,1,72,2.178,14,0.35,1,1,1,1.115,NA,NA,NA,NA,"feed",0,1.881,3.356
"6913","anger","decay",38,1,73,3.038,12,0.3,0,1,0,1.101,NA,NA,NA,NA,"decay",1,15.563,26.095
"6913","prison","loaf",40,1,62,2.598,24,0.6,0,1,0,1.071,NA,NA,NA,NA,"loaf",1,9.972,16.822
"6913","climax","saucer",19,1,93,3.66,19,0.475,1,0,0,3.431,NA,NA,NA,NA,"saucer",1,13.799,31.247
"6913","need","faucet",7,1,65,2.525,27,0.675,0,1,0,0.822,NA,NA,NA,NA,"faucet",1,17.448,25.191
"6913","date","laugh",15,1,75,2.695,22,0.55,0,1,0,1.218,NA,NA,NA,NA,"laugh",1,13.891,26.999
"6913","capital","figure",10,1,90,3.262,40,1,0,0,1,1.021,NA,NA,NA,NA,"figure",1,13.177,20.119
"6913","want","ascent",24,1,95,5.207,39,0.975,1,1,1,3.477,NA,NA,NA,NA,"ascent",1,19.242,23.927
"6913","visit","glove",6,1,92,3.076,2,0.05,1,0,0,1.022,NA,NA,NA,NA,"glove",1,12.561,15.606
"6913","glue","force",26,1,95,5.743,9,0.225,1,1,1,1.256,NA,NA,NA,NA,"force",1,10.208,13.96
"6913","risk","zero",37,1,82,2.86,35,0.875,0,0,1,2.359,NA,NA,NA,NA,"zero",1,15.016,18.175
"6913","port","cinema",13,1,81,3.285,23,0.575,1,0,0,1.03,NA,NA,NA,NA,"cinema",1,10.589,20.454
"6913","fan","feature",29,1,93,10.212,28,0.7,0,0,1,0.854,NA,NA,NA,NA,"feature",1,14.96,40.295
"6913","chicken","beet",14,1,100,2.485,4,0.1,1,0,0,1.03,NA,NA,NA,NA,"beet",1,2.446,4.336
"6913","find","clown",16,1,92,3.205,31,0.775,0,0,1,1.367,NA,NA,NA,NA,"clown",1,7.968,14.735
"6913","smother","surgery",18,1,62,2.677,11,0.275,0,1,0,1.303,NA,NA,NA,NA,"surgery",1,14.699,23.172
"6913","banner","glide",30,1,81,2.74,21,0.525,1,0,0,1.181,NA,NA,NA,NA,"glide",1,13.473,18.535
"6913","fee","chowder",17,1,94,14.331,8,0.2,1,1,1,1.23,NA,NA,NA,NA,"chowder",1,6.134,18.767
"6913","collect","loyalty",25,1,91,5.575,33,0.825,0,0,1,2.069,NA,NA,NA,NA,"loyalty",1,9.221,46.222
"6913","process","joker",20,1,96,4.47,18,0.45,1,0,0,1.358,NA,NA,NA,NA,"joker",1,15.808,27.11
"6913","knock","otter",33,1,88,4.622,15,0.375,0,0,1,1.085,NA,NA,NA,NA,"otter",1,38.775,44.599
"6913","grip","beach",1,1,94,4.243,29,0.725,1,1,1,4.825,NA,NA,NA,NA,"beach",1,11.487,21.287
"6913","link","crisis",4,1,89,3.653,14,0.35,1,0,0,0.974,NA,NA,NA,NA,"crisis",1,15.583,19.927
"6913","bias","sirloin",12,1,93,3.934,1,0.025,1,1,1,4.831,NA,NA,NA,NA,"sirloin",1,48.199,60.806
"6913","plant","worm",31,1,95,4.357,32,0.8,1,1,1,1.765,NA,NA,NA,NA,"worm",1,20.006,83.982
"6913","bacon","feud",5,1,93,8.245,36,0.9,1,1,1,1.471,NA,NA,NA,NA,"feud",1,64.887,68.263
"6913","bleach","ruin",34,1,93,3.533,6,0.15,1,1,1,0.997,NA,NA,NA,NA,"ruin",1,18.637,20.918
"6913","calf","annoy",9,1,92,3.781,37,0.925,0,0,1,1.059,NA,NA,NA,NA,"annoy",1,11.19,15.202
"6913","remind","foam",32,1,95,3.741,13,0.325,1,1,1,1.63,NA,NA,NA,NA,"foam",1,13.702,22.123
"6913","forest","knob",28,1,93,3.517,30,0.75,1,1,1,1.251,NA,NA,NA,NA,"knob",1,4.856,8.487
"6913","rock","milk",27,1,76,2.71,34,0.85,0,1,0,1.187,NA,NA,NA,NA,"milk",1,6.909,9.263
"6913","pea","bathtub",36,1,92,2.948,7,0.175,0,0,1,1.189,NA,NA,NA,NA,"bathtub",1,6.064,23.795
"6913","replace","roach",11,1,66,2.574,17,0.425,0,1,0,1.007,NA,NA,NA,NA,"roach",1,33.419,44.13
"6913","nerve","bumper",21,1,81,3.941,20,0.5,1,0,0,1.013,NA,NA,NA,NA,"bumper",1,23.672,29.703
"6913","pork","emperor",3,1,60,3.579,5,0.125,0,1,0,1.519,NA,NA,NA,NA,"emperor",1,28.213,35.934
"6913","copy","bedroom",35,1,76,3.253,16,0.4,0,1,0,1.103,NA,NA,NA,NA,"bedroom",1,7.798,11.208
"6913","shrink","mafia",39,1,81,10.099,26,0.65,0,1,0,5.707,NA,NA,NA,NA,"mafia",1,283.774,292.527
"6913","biology","temper",22,1,92,3.019,3,0.075,0,0,1,1.143,NA,NA,NA,NA,"temper",1,4.359,12.975
"6913","mill","feast",2,1,92,2.709,38,0.95,0,0,1,2.829,NA,NA,NA,NA,"feast",1,3.294,10.607
"6913","caring","skirt",8,1,94,3.037,25,0.625,1,0,0,0.992,NA,NA,NA,NA,"skirt",1,27.76,45.981
"6913","bullet","walkway",23,1,100,2.572,10,0.25,1,0,0,1.182,NA,NA,NA,NA,"walkway",1,2.849,9.543
"7783","fee","chowder",24,1,20,3.216,37,0.925,1,0,0,0.815,NA,NA,NA,NA,"hallway",0,12.999,15.042
"7783","calf","annoy",9,1,67,7.13,20,0.5,0,0,1,1.575,NA,NA,NA,NA,"round",0,4.507,5.624
"7783","climax","saucer",16,1,17,5.933,16,0.4,1,0,0,1.391,NA,NA,NA,NA,"cinema ",0,1.963,13.215
"7783","pea","bathtub",19,1,94,3.802,6,0.15,1,1,1,1.056,NA,NA,NA,NA,"bedroom",0,1.613,3.306
"7783","risk","zero",39,1,61,4.254,25,0.625,0,0,1,1.182,NA,NA,NA,NA,"calf",0,18.899,20.079
"7783","replace","roach",6,1,15,2.193,9,0.225,0,1,0,0.703,NA,NA,NA,NA,"room",0,6.992,13.405
"7783","need","faucet",26,1,17,5.846,4,0.1,1,0,0,0.852,NA,NA,NA,NA,"want",0,20.122,23.398
"7783","bacon","feud",7,1,90,7.585,39,0.975,1,1,1,0.952,NA,NA,NA,NA,"feud",1,4.466,7.743
"7783","capital","figure",11,1,30,8.814,31,0.775,1,0,0,1.119,NA,NA,NA,NA,"hallway",0,2.993,6.775
"7783","rock","milk",25,1,97,3.846,2,0.05,1,1,1,0.828,NA,NA,NA,NA,"milk",1,1.565,6.904
"7783","mill","feast",34,1,19,2.358,22,0.55,1,0,0,0.705,NA,NA,NA,NA,"guard",0,12.154,13.501
"7783","port","cinema",5,1,12,12.91,40,1,0,1,0,0.983,NA,NA,NA,NA,"hallway",0,3.2,4.845
"7783","forest","knob",20,1,93,11.117,18,0.45,1,1,1,0.911,NA,NA,NA,NA,"knob",1,1.085,3.606
"7783","bias","sirloin",23,1,7,2.088,28,0.7,0,1,0,1.087,NA,NA,NA,NA,"bedroom",0,34.49,36.47
"7783","remind","foam",15,1,20,5.316,15,0.375,1,0,0,3.903,NA,NA,NA,NA,"forward",0,3.337,11.759
"7783","copy","bedroom",1,1,11,3.529,10,0.25,0,1,0,0.787,NA,NA,NA,NA,"remind",0,3.878,5.078
"7783","shrink","mafia",35,1,64,2.296,24,0.6,0,0,1,0.75,NA,NA,NA,NA,"shark",0,2.368,3.39
"7783","prison","loaf",21,1,96,3.606,5,0.125,1,1,1,1.137,NA,NA,NA,NA,"loaf",1,1.663,3.395
"7783","want","ascent",36,1,10,2.699,1,0.025,0,1,0,0.829,NA,NA,NA,NA,"need",0,2.717,3.704
"7783","nerve","bumper",38,1,21,4.71,17,0.425,1,0,0,7.526,NA,NA,NA,NA,"hallway",0,9.191,10.614
"7783","knock","otter",40,1,93,4.18,8,0.2,1,1,1,0.752,NA,NA,NA,NA,"forest",0,1.14,5.347
"7783","bleach","ruin",13,1,93,2.509,36,0.9,1,1,1,1.019,NA,NA,NA,NA,"ruin",1,2.368,9.009
"7783","date","laugh",2,1,98,4.302,12,0.3,1,1,1,0.894,NA,NA,NA,NA,"laugh",1,1.636,3.069
"7783","caring","skirt",18,1,9,2.242,23,0.575,0,1,0,0.83,NA,NA,NA,NA,"room",0,3.726,7.114
"7783","visit","glove",22,1,17,2.394,3,0.075,1,0,0,0.823,NA,NA,NA,NA,"room",0,2.062,6.705
"7783","banner","glide",37,1,31,2.945,26,0.65,0,0,1,0.926,NA,NA,NA,NA,"waving",0,8.243,10.101
"7783","find","clown",8,1,24,2.645,21,0.525,0,0,1,0.799,NA,NA,NA,NA,"forest",0,1.989,4.664
"7783","plant","worm",14,1,18,2.519,14,0.35,1,0,0,1.007,NA,NA,NA,NA,"room",0,2.384,3.351
"7783","collect","loyalty",27,1,15,2.256,32,0.8,0,1,0,0.718,NA,NA,NA,NA,"ruin",0,1.92,2.791
"7783","smother","surgery",28,1,20,10.055,30,0.75,0,0,1,16.877,NA,NA,NA,NA,"room",0,5.78,34.721
"7783","fan","feature",17,1,89,3.962,38,0.95,0,0,1,0.802,NA,NA,NA,NA,"bedroom",0,19.325,20.916
"7783","grip","beach",33,1,41,10.665,34,0.85,0,0,1,0.846,NA,NA,NA,NA,"hallway",0,3.77,5.284
"7783","biology","temper",31,1,12,2.137,29,0.725,0,1,0,1.15,NA,NA,NA,NA,"cub",0,4.351,6.13
"7783","bullet","walkway",12,1,22,2.608,11,0.275,0,0,1,0.963,NA,NA,NA,NA,"chamber",0,4.11,6.265
"7783","process","joker",10,1,7,2.158,35,0.875,0,1,0,1.09,NA,NA,NA,NA,"ruin",0,8.433,9.297
"7783","anger","decay",29,1,61,5.985,33,0.825,0,0,1,0.791,NA,NA,NA,NA,"danger",0,1.965,8.633
"7783","link","crisis",32,1,19,2.042,7,0.175,1,0,0,0.974,NA,NA,NA,NA,"house",0,1.49,2.504
"7783","chicken","beet",30,1,90,4.597,13,0.325,1,1,1,1.207,NA,NA,NA,NA,"beet",1,1.283,5.276
"7783","glue","force",3,1,93,4.965,19,0.475,1,1,1,0.783,NA,NA,NA,NA,"force",1,3.198,5.148
"7783","pork","emperor",4,1,15,3.289,27,0.675,0,1,0,0.834,NA,NA,NA,NA,"beet",0,1.569,3.013
"8301","mill","feast",10,1,79,4.86,12,0.3,0,0,1,3.422,NA,NA,NA,NA,"feast",1,28.544,31.602
"8301","plant","worm",34,1,90,4.898,10,0.25,1,1,1,3.5,NA,NA,NA,NA,"worm",1,21.074,24.941
"8301","rock","milk",24,1,90,7.042,19,0.475,1,1,1,1.515,NA,NA,NA,NA,"milk",1,21.917,24.23
"8301","fan","feature",36,1,93,2.688,6,0.15,1,0,0,2.298,NA,NA,NA,NA,"feature",1,11.518,14.615
"8301","link","crisis",26,1,91,2.777,30,0.75,1,0,0,5.945,NA,NA,NA,NA,"crisis",1,9.962,13.35
"8301","chicken","beet",40,1,89,2.715,32,0.8,0,1,0,1.368,NA,NA,NA,NA,"beet",1,17.373,19.823
"8301","smother","surgery",29,1,85,9.427,35,0.875,0,0,1,1.897,NA,NA,NA,NA,"surgery",1,18.97,22.375
"8301","port","cinema",23,1,81,2.689,25,0.625,0,0,1,1.593,NA,NA,NA,NA,"cinema",1,109.381,112.086
"8301","biology","temper",13,1,89,2.61,37,0.925,1,0,0,1.417,NA,NA,NA,NA,"bogus",0,4.902,7.71
"8301","replace","roach",20,1,85,8.038,17,0.425,0,0,1,3.158,NA,NA,NA,NA,"roach",1,6.241,9.567
"8301","forest","knob",32,1,84,9.181,29,0.725,0,1,0,3.177,NA,NA,NA,NA,"bride",0,69.156,72.071
"8301","process","joker",9,1,85,4.616,21,0.525,0,0,1,1.582,NA,NA,NA,NA,"joker",1,19.944,23.063
"8301","glue","force",28,1,94,3.372,13,0.325,1,1,1,2.385,NA,NA,NA,NA,"force",1,9.242,11.806
"8301","capital","figure",21,1,92,5.905,24,0.6,1,1,1,2.58,NA,NA,NA,NA,"caring",0,31.256,36.83
"8301","bacon","feud",31,1,92,2.77,3,0.075,1,0,0,2.284,NA,NA,NA,NA,"cheese",0,28.168,33.607
"8301","prison","loaf",38,1,83,5.199,22,0.55,0,0,1,9.729,NA,NA,NA,NA,"pole",0,20.935,23.007
"8301","knock","otter",33,1,89,5.789,20,0.5,1,1,1,1.388,NA,NA,NA,NA,"otter",1,25.164,27.639
"8301","calf","annoy",14,1,88,2.492,38,0.95,0,1,0,1.368,NA,NA,NA,NA,"annoy",1,10.082,14.431
"8301","risk","zero",39,1,95,2.922,39,0.975,1,0,0,1.476,NA,NA,NA,NA,"zero",1,17.795,21.407
"8301","date","laugh",4,1,85,7.598,15,0.375,0,0,1,1.524,NA,NA,NA,NA,"laugh",1,15.406,17.743
"8301","caring","skirt",15,1,90,3.608,26,0.65,1,0,0,1.622,NA,NA,NA,NA,"skirt",1,22.658,28.399
"8301","banner","glide",7,1,93,2.747,40,1,1,0,0,1.261,NA,NA,NA,NA,"glide",1,2.129,20.695
"8301","visit","glove",1,1,82,3.871,18,0.45,0,0,1,2.159,NA,NA,NA,NA,"fill",0,5.367,7.607
"8301","collect","loyalty",2,1,95,4.86,1,0.025,1,1,1,2.59,NA,NA,NA,NA,"grain",0,2.172,4.751
"8301","fee","chowder",30,1,93,3.636,7,0.175,1,0,0,1.339,NA,NA,NA,NA,"protest",0,1.807,5.687
"8301","grip","beach",25,1,88,3.049,5,0.125,1,1,1,3.148,NA,NA,NA,NA,"beach",1,42.951,45.726
"8301","want","ascent",35,1,89,4.029,14,0.35,0,1,0,1.427,NA,NA,NA,NA,"ascent",1,23.002,28.991
"8301","pork","emperor",8,1,89,3.9,33,0.825,1,1,1,1.691,NA,NA,NA,NA,"emperor",1,39.696,43.575
"8301","climax","saucer",6,1,92,3.354,9,0.225,1,0,0,2.111,NA,NA,NA,NA,"burn",0,4.714,6.623
"8301","need","faucet",22,1,93,3.022,36,0.9,1,0,0,2.766,NA,NA,NA,NA,"faucet",1,1.878,8.255
"8301","find","clown",11,1,84,3.344,34,0.85,0,1,0,1.368,NA,NA,NA,NA,"collect",0,3.3,6.247
"8301","anger","decay",5,1,89,3.266,31,0.775,0,1,0,2.13,NA,NA,NA,NA,"grave",0,30.048,32.535
"8301","bullet","walkway",12,1,93,6.737,23,0.575,1,1,1,5.085,NA,NA,NA,NA,"priide",0,3.154,5.294
"8301","shrink","mafia",18,1,80,3.422,16,0.4,0,0,1,1.827,NA,NA,NA,NA,"get",0,4.009,6.191
"8301","nerve","bumper",17,1,87,2.736,8,0.2,0,1,0,1.944,NA,NA,NA,NA,"weary",0,2.123,4.43
"8301","bias","sirloin",19,1,78,3.109,28,0.7,0,1,0,2.074,NA,NA,NA,NA,"lit",0,3.168,8.591
"8301","pea","bathtub",27,1,85,3.774,4,0.1,0,0,1,1.846,NA,NA,NA,NA,"joker",0,16.726,19.223
"8301","bleach","ruin",16,1,90,8.567,11,0.275,1,1,1,3.912,NA,NA,NA,NA,"break",0,2.542,25.83
"8301","remind","foam",3,1,81,2.845,2,0.05,0,1,0,1.251,NA,NA,NA,NA,"rest",0,1.597,3.431
"8301","copy","bedroom",37,1,88,3.324,27,0.675,0,1,0,7.637,NA,NA,NA,NA,"grave",0,1.737,5.319
"9197","glue","force",27,1,80,2.959,15,0.375,1,1,1,2.072,NA,NA,NA,NA,"table",0,46.193,48.114
"9197","capital","figure",16,1,15,4.095,31,0.775,0,0,1,1.912,NA,NA,NA,NA,"figure",1,13.475,16.431
"9197","banner","glide",6,1,8,1.927,19,0.475,1,0,0,0.655,NA,NA,NA,NA,"flag",0,12.224,13.672
"9197","date","laugh",25,1,7,4.679,16,0.4,0,1,0,1.295,NA,NA,NA,NA,"sirloin",0,9.862,12.042
"9197","link","crisis",26,1,1,2.023,1,0.025,0,1,0,0.623,NA,NA,NA,NA,"crisis",1,8.539,10.505
"9197","bullet","walkway",17,1,1,2,36,0.9,0,1,0,0.744,NA,NA,NA,NA,"storm",0,9.731,11.374
"9197","fan","feature",38,1,14,3.279,38,0.95,1,0,0,0.679,NA,NA,NA,NA,"team",0,13.812,14.938
"9197","chicken","beet",23,1,14,5.374,12,0.3,1,0,0,3.383,NA,NA,NA,NA,"feet",0,10.098,12.691
"9197","calf","annoy",34,1,11,2.191,3,0.075,0,0,1,0.759,NA,NA,NA,NA,"anger",0,1.248,3.043
"9197","bleach","ruin",40,1,32,1.911,18,0.45,1,1,1,0.567,NA,NA,NA,NA,"shirt",0,11.902,14.893
"9197","want","ascent",15,1,73,2.647,11,0.275,1,1,1,0.623,NA,NA,NA,NA,"get",0,12.988,14.913
"9197","risk","zero",5,1,28,2.695,20,0.5,1,0,0,1.063,NA,NA,NA,NA,"reward",0,7.151,9.404
"9197","biology","temper",36,1,29,3.095,40,1,1,1,1,0.624,NA,NA,NA,NA,"cook",0,12.779,14.281
"9197","need","faucet",12,1,15,3.063,7,0.175,1,0,0,6.927,NA,NA,NA,NA,"have",0,12.455,14.279
"9197","find","clown",28,1,18,2.072,22,0.55,0,0,1,1.631,NA,NA,NA,NA,"clown",1,5.051,7.988
"9197","caring","skirt",35,1,25,1.911,8,0.2,1,1,1,0.543,NA,NA,NA,NA,"sick",0,2.849,4.222
"9197","replace","roach",31,1,8,2.247,26,0.65,1,0,0,0.847,NA,NA,NA,NA,"collect",0,8.137,10.734
"9197","collect","loyalty",32,1,1,2.143,28,0.7,0,1,0,0.591,NA,NA,NA,NA,"loyalty",1,3.914,6.225
"9197","port","cinema",11,1,1,3.183,23,0.575,0,1,0,0.815,NA,NA,NA,NA,"cinema",1,6.746,8.507
"9197","visit","glove",29,1,1,1.655,37,0.925,0,0,1,0.768,NA,NA,NA,NA,"glove",1,11.267,13.955
"9197","forest","knob",1,1,8,2.472,10,0.25,0,0,1,1.031,NA,NA,NA,NA,"skate",0,8.595,10.505
"9197","smother","surgery",9,1,10,2.071,21,0.525,1,0,0,0.767,NA,NA,NA,NA,"pillow",0,7.463,9.585
"9197","climax","saucer",3,1,1,2.671,2,0.05,0,1,0,0.712,NA,NA,NA,NA,"solve",0,8.908,10.612
"9197","copy","bedroom",2,1,22,2.151,13,0.325,1,0,0,0.727,NA,NA,NA,NA,"paper",0,9.506,11.575
"9197","knock","otter",37,1,98,5.663,4,0.1,1,1,1,2.263,NA,NA,NA,NA,"otter",1,1.894,3.607
"9197","remind","foam",14,1,22,2.255,35,0.875,1,0,0,1.686,NA,NA,NA,NA,"note",0,8.374,10.656
"9197","bacon","feud",30,1,3,2.088,9,0.225,0,1,0,0.768,NA,NA,NA,NA,"farm",0,9.23,10.706
"9197","plant","worm",4,1,30,3.703,6,0.15,1,0,0,1.776,NA,NA,NA,NA,"seed",0,10.843,13.083
"9197","fee","chowder",10,1,12,1.567,17,0.425,0,0,1,0.671,NA,NA,NA,NA,"ash",0,7.701,10.142
"9197","nerve","bumper",19,1,1,1.575,39,0.975,0,1,0,0.959,NA,NA,NA,NA,"bumper",1,6.328,8.118
"9197","mill","feast",13,1,1,1.4,33,0.825,0,0,1,0.88,NA,NA,NA,NA,"feast",1,6.449,9.199
"9197","process","joker",24,1,67,1.767,25,0.625,1,1,1,0.735,NA,NA,NA,NA,"time",0,7.558,9.003
"9197","anger","decay",20,1,1,2.087,5,0.125,0,1,0,0.559,NA,NA,NA,NA,"decay",1,7.959,9.923
"9197","rock","milk",33,1,1,1.831,14,0.35,0,0,1,1.055,NA,NA,NA,NA,"milk",1,3.558,5.61
"9197","bias","sirloin",8,1,1,1.855,24,0.6,0,1,0,1.023,NA,NA,NA,NA,"feud",0,6.931,9.063
"9197","prison","loaf",18,1,93,2.76,29,0.725,1,1,1,1.168,NA,NA,NA,NA,"visit",0,8.306,10.102
"9197","pork","emperor",7,1,18,1.863,27,0.675,1,1,1,4.926,NA,NA,NA,NA,"fence",0,10.565,14.178
"9197","grip","beach",22,1,14,2.519,34,0.85,0,0,1,1.031,NA,NA,NA,NA,"beach",1,5.581,8.307
"9197","pea","bathtub",21,1,30,2.055,32,0.8,1,1,1,0.623,NA,NA,NA,NA,"coat",0,6.952,8.408
"9197","shrink","mafia",39,1,2,1.806,30,0.75,0,0,1,0.624,NA,NA,NA,NA,"mafia",1,8.699,11.063
"9455","biology","temper",38,1,52,1.478,8,0.2,0,1,0,0.648,NA,NA,NA,NA,"curb",0,6.112,8.054
"9455","pork","emperor",18,1,27,1.428,25,0.625,0,1,0,0.671,NA,NA,NA,NA,"belly",0,2.569,4.291
"9455","shrink","mafia",26,1,68,1.362,27,0.675,1,1,1,0.635,NA,NA,NA,NA,"wrap",0,1.279,2.854
"9455","nerve","bumper",10,1,65,1.611,32,0.8,1,1,1,0.642,NA,NA,NA,NA,"ending",0,2.232,3.68
"9455","want","ascent",13,1,62,1.444,38,0.95,1,0,0,0.587,NA,NA,NA,NA,"street",0,2.722,3.828
"9455","process","joker",22,1,24,2.277,37,0.925,0,0,1,5.602,NA,NA,NA,NA,"forest",0,1.828,3.48
"9455","fan","feature",30,1,33,2.826,23,0.575,0,0,1,0.672,NA,NA,NA,NA,"knob",0,1.403,3.024
"9455","port","cinema",32,1,38,1.335,22,0.55,0,0,1,1.191,NA,NA,NA,NA,"cement",0,44.988,48.983
"9455","bacon","feud",11,1,80,1.815,26,0.65,1,1,1,0.975,NA,NA,NA,NA,"knob",0,2.035,3.307
"9455","date","laugh",6,1,37,1.438,17,0.425,0,1,0,0.527,NA,NA,NA,NA,"forest",0,1.684,3.543
"9455","link","crisis",4,1,35,1.754,24,0.6,0,0,1,0.742,NA,NA,NA,NA,"date",0,1.946,2.819
"9455","smother","surgery",35,1,55,1.414,12,0.3,0,1,0,0.607,NA,NA,NA,NA,"cement",0,3.831,7.411
"9455","pea","bathtub",5,1,29,1.859,6,0.15,0,0,1,0.783,NA,NA,NA,NA,"green",0,1.755,2.644
"9455","bias","sirloin",29,1,38,1.794,11,0.275,0,1,0,20.909,NA,NA,NA,NA,"news",0,1.391,2.119
"9455","climax","saucer",2,1,50,3.411,34,0.85,0,1,0,28.436,NA,NA,NA,NA,"ending",0,1.169,1.968
"9455","grip","beach",15,1,47,2.348,13,0.325,0,1,0,0.817,NA,NA,NA,NA,"handle",0,1.326,2.026
"9455","capital","figure",27,1,86,1.355,16,0.4,1,1,1,0.735,NA,NA,NA,NA,"cement",0,1.416,2.151
"9455","copy","bedroom",14,1,63,1.239,21,0.525,0,0,1,0.487,NA,NA,NA,NA,"knob",0,0.799,2.474
"9455","glue","force",9,1,33,1.284,20,0.5,0,1,0,0.586,NA,NA,NA,NA,"forest",0,1.01,1.987
"9455","replace","roach",31,1,64,1.549,35,0.875,1,0,0,0.735,NA,NA,NA,NA,"blue",0,0.831,1.497
"9455","prison","loaf",20,1,66,1.643,4,0.1,1,0,0,0.799,NA,NA,NA,NA,"life",0,3.275,3.995
"9455","calf","annoy",24,1,75,1.283,10,0.25,1,1,1,0.639,NA,NA,NA,NA,"young",0,1.527,2.387
"9455","chicken","beet",16,1,82,5.581,2,0.05,1,1,1,3.827,NA,NA,NA,NA,"hardening",0,1.753,3.033
"9455","collect","loyalty",17,1,66,1.815,30,0.75,1,1,1,17.971,NA,NA,NA,NA,"check",0,1.671,2.327
"9455","need","faucet",39,1,67,1.479,18,0.45,1,1,1,0.663,NA,NA,NA,NA,"want",0,1.353,1.997
"9455","remind","foam",3,1,100,1.767,3,0.075,1,0,0,0.983,NA,NA,NA,NA,"baron",0,16.554,17.747
"9455","banner","glide",34,1,58,1.031,9,0.225,1,0,0,0.639,NA,NA,NA,NA,"wred",0,1.959,3.621
"9455","fee","chowder",25,1,32,1.331,33,0.825,0,0,1,0.607,NA,NA,NA,NA,"waiver",0,1.473,2.484
"9455","visit","glove",7,1,53,2.575,7,0.175,0,0,1,30.048,NA,NA,NA,NA,"wandering",0,1.901,2.943
"9455","caring","skirt",28,1,61,1.375,19,0.475,0,0,1,0.559,NA,NA,NA,NA,"brother",0,1.297,2.527
"9455","find","clown",8,1,36,1.559,28,0.7,0,1,0,0.596,NA,NA,NA,NA,"keepers",0,1.367,2.403
"9455","forest","knob",40,1,63,1.364,40,1,1,0,0,0.66,NA,NA,NA,NA,"knob",1,0.942,2.099
"9455","rock","milk",33,1,69,1.194,36,0.9,1,0,0,1.955,NA,NA,NA,NA,"hard",0,1.147,1.823
"9455","mill","feast",23,1,24,1.776,1,0.025,0,1,0,0.531,NA,NA,NA,NA,"valley",0,1.123,2.026
"9455","bullet","walkway",37,1,63,1.331,5,0.125,1,0,0,0.459,NA,NA,NA,NA,"cement",0,0.95,2.032
"9455","plant","worm",21,1,62,1.395,31,0.775,1,0,0,0.579,NA,NA,NA,NA,"knob",0,1.162,2.044
"9455","bleach","ruin",1,1,66,1.556,14,0.35,1,1,1,0.619,NA,NA,NA,NA,"forest",0,1.131,2.05
"9455","knock","otter",36,1,65,1.9,29,0.725,1,1,1,0.754,NA,NA,NA,NA,"door",0,3.278,4.326
"9455","anger","decay",19,1,63,1.695,39,0.975,0,0,1,0.727,NA,NA,NA,NA,"mob",0,1.406,2.071
"9455","risk","zero",12,1,98,1.939,15,0.375,1,0,0,0.795,NA,NA,NA,NA,"averse",0,1.145,2.274
"9911","pork","emperor",26,1,97,2.679,22,0.55,1,1,1,0.863,NA,NA,NA,NA,"emperor",1,5.973,9.736
"9911","port","cinema",9,1,2,2.415,10,0.25,1,0,0,1.159,NA,NA,NA,NA,"cinema",1,6.525,9.687
"9911","copy","bedroom",29,1,2,1.983,20,0.5,0,0,1,0.935,NA,NA,NA,NA,"bedroom",1,8.358,11.318
"9911","collect","loyalty",25,1,1,2.583,23,0.575,0,0,1,0.647,NA,NA,NA,NA,"loyalty",1,4.338,8.383
"9911","knock","otter",10,1,1,2.479,3,0.075,0,1,0,0.823,NA,NA,NA,NA,"other",0,3.326,5.759
"9911","forest","knob",7,1,1,2.207,29,0.725,0,0,1,0.799,NA,NA,NA,NA,"knob",1,7.258,9.519
"9911","fee","chowder",16,1,1,2.255,36,0.9,0,0,1,0.759,NA,NA,NA,NA,"texture",0,24.263,27.423
"9911","remind","foam",8,1,2,2.022,21,0.525,1,0,0,0.76,NA,NA,NA,NA,"foam",1,12.026,14.502
"9911","bleach","ruin",32,1,3,2.311,6,0.15,1,0,0,0.67,NA,NA,NA,NA,"ruin",1,7.599,9.672
"9911","nerve","bumper",37,1,1,2.23,30,0.75,0,1,0,0.806,NA,NA,NA,NA,"bumper",1,3.047,5.56
"9911","date","laugh",31,1,1,2.742,31,0.775,0,1,0,0.982,NA,NA,NA,NA,"laugh",1,11.593,14.216
"9911","visit","glove",28,1,2,1.927,17,0.425,0,0,1,0.807,NA,NA,NA,NA,"glove",1,4.333,6.783
"9911","prison","loaf",22,1,4,2.158,34,0.85,1,1,1,1.287,NA,NA,NA,NA,"loaf",1,2.448,4.487
"9911","process","joker",11,1,5,2.215,35,0.875,1,0,0,0.704,NA,NA,NA,NA,"joker",1,3.697,5.919
"9911","link","crisis",4,1,3,3.887,19,0.475,1,1,1,0.639,NA,NA,NA,NA,"crisis",1,8.764,11.943
"9911","pea","bathtub",34,1,100,2.823,13,0.325,1,1,1,1.511,NA,NA,NA,NA,"bathtub",1,3.948,7.007
"9911","mill","feast",21,1,1,2.527,27,0.675,0,1,0,0.751,NA,NA,NA,NA,"feast",1,6.882,11.903
"9911","need","faucet",24,1,1,5.582,1,0.025,0,1,0,12.085,NA,NA,NA,NA,"faucet",1,10.171,12.855
"9911","plant","worm",15,1,1,2.239,33,0.825,1,0,0,0.608,NA,NA,NA,NA,"worm",1,7.197,9.703
"9911","biology","temper",2,1,1,2.078,15,0.375,0,1,0,0.815,NA,NA,NA,NA,"temper",1,15.952,18.599
"9911","anger","decay",20,1,97,5.08,39,0.975,1,1,1,0.942,NA,NA,NA,NA,"decay",1,5.521,7.583
"9911","fan","feature",40,1,94,1.783,18,0.45,1,1,1,0.695,NA,NA,NA,NA,"feature",1,6.126,9.007
"9911","want","ascent",35,1,1,2.487,28,0.7,0,0,1,1.183,NA,NA,NA,NA,"ascent",1,6.622,11.735
"9911","find","clown",3,1,2,3.719,7,0.175,1,0,0,1.375,NA,NA,NA,NA,"clown",1,3.276,5.823
"9911","smother","surgery",27,1,99,2.071,24,0.6,1,1,1,0.783,NA,NA,NA,NA,"surgery",1,4.309,7.504
"9911","rock","milk",30,1,2,2.528,37,0.925,1,0,0,0.71,NA,NA,NA,NA,"milk",1,6.63,8.424
"9911","glue","force",1,1,2,2.207,38,0.95,1,0,0,0.959,NA,NA,NA,NA,"force",1,10.085,12.551
"9911","chicken","beet",5,1,98,2.855,12,0.3,1,1,1,0.663,NA,NA,NA,NA,"beef",0,2.81,4.864
"9911","shrink","mafia",39,1,1,2.231,16,0.4,0,1,0,0.783,NA,NA,NA,NA,"mafia",1,2.868,5.687
"9911","risk","zero",23,1,1,3.391,32,0.8,0,0,1,0.663,NA,NA,NA,NA,"zero",1,7.385,9.392
"9911","replace","roach",6,1,1,2.007,25,0.625,0,0,1,0.775,NA,NA,NA,NA,"roach",1,6.936,9.832
"9911","bias","sirloin",38,1,1,4.63,2,0.05,0,1,0,1.079,NA,NA,NA,NA,"sirloin",1,4.564,8.048
"9911","bullet","walkway",13,1,100,3.023,40,1,1,1,1,0.791,NA,NA,NA,NA,"walkaway",0,6.692,11.647
"9911","calf","annoy",19,1,1,2.399,4,0.1,0,1,0,1.007,NA,NA,NA,NA,"annoy",1,9.426,11.863
"9911","grip","beach",14,1,1,2.27,5,0.125,1,0,0,0.895,NA,NA,NA,NA,"beach",1,4.06,6.807
"9911","bacon","feud",17,1,2,3.015,14,0.35,1,0,0,0.959,NA,NA,NA,NA,"feud",1,2.666,4.807
"9911","capital","figure",36,1,1,2.407,26,0.65,0,0,1,0.711,NA,NA,NA,NA,"figure",1,5.435,8.328
"9911","climax","saucer",12,1,1,2.695,11,0.275,0,1,0,0.815,NA,NA,NA,NA,"saucer",1,5.479,8.128
"9911","caring","skirt",33,1,1,1.879,8,0.2,0,0,1,0.744,NA,NA,NA,NA,"skirt",1,4.097,6.511
"9911","banner","glide",18,1,99,3.063,9,0.225,1,1,1,1.735,NA,NA,NA,NA,"glide",1,1.595,3.839
