word1,word2,trial,list,jol,jolrt,jolrtfirst,choice,choicert,
replace,roach,1,1,-99,-99,-99,-99,-99,
bias,sirloin,2,1,-99,-99,-99,-99,-99,
caring,skirt,3,1,-99,-99,-99,-99,-99,
fee,chowder,4,1,-99,-99,-99,-99,-99,
date,laugh,5,1,-99,-99,-99,-99,-99,
need,faucet,6,1,-99,-99,-99,-99,-99,
grip,beach,7,1,-99,-99,-99,-99,-99,
process,joker,8,1,-99,-99,-99,-99,-99,
bleach,ruin,9,1,-99,-99,-99,-99,-99,
forest,knob,10,1,-99,-99,-99,-99,-99,
capital,figure,11,1,-99,-99,-99,-99,-99,
find,clown,12,1,-99,-99,-99,-99,-99,
pea,bathtub,13,1,-99,-99,-99,-99,-99,
calf,annoy,14,1,-99,-99,-99,-99,-99,
chicken,beet,15,1,-99,-99,-99,-99,-99,
biology,temper,16,1,-99,-99,-99,-99,-99,
knock,otter,17,1,-99,-99,-99,-99,-99,
shrink,mafia,18,1,-99,-99,-99,-99,-99,
plant,worm,19,1,-99,-99,-99,-99,-99,
anger,decay,20,1,-99,-99,-99,-99,-99,
bullet,walkway,21,1,-99,-99,-99,-99,-99,
pork,emperor,22,1,-99,-99,-99,-99,-99,
copy,bedroom,23,1,-99,-99,-99,-99,-99,
bacon,feud,24,1,-99,-99,-99,-99,-99,
remind,foam,25,1,-99,-99,-99,-99,-99,
glue,force,26,1,-99,-99,-99,-99,-99,
collect,loyalty,27,1,-99,-99,-99,-99,-99,
prison,loaf,28,1,-99,-99,-99,-99,-99,
want,ascent,29,1,-99,-99,-99,-99,-99,
nerve,bumper,30,1,-99,-99,-99,-99,-99,
port,cinema,31,1,-99,-99,-99,-99,-99,
smother,surgery,32,1,-99,-99,-99,-99,-99,
risk,zero,33,1,-99,-99,-99,-99,-99,
rock,milk,34,1,-99,-99,-99,-99,-99,
banner,glide,35,1,-99,-99,-99,-99,-99,
climax,saucer,36,1,-99,-99,-99,-99,-99,
visit,glove,37,1,-99,-99,-99,-99,-99,
link,crisis,38,1,-99,-99,-99,-99,-99,
mill,feast,39,1,-99,-99,-99,-99,-99,
fan,feature,40,1,-99,-99,-99,-99,-99,
plant,worm,1,2,-99,-99,-99,-99,-99,
date,laugh,2,2,-99,-99,-99,-99,-99,
collect,loyalty,3,2,-99,-99,-99,-99,-99,
find,clown,4,2,-99,-99,-99,-99,-99,
mill,feast,5,2,-99,-99,-99,-99,-99,
climax,saucer,6,2,-99,-99,-99,-99,-99,
biology,temper,7,2,-99,-99,-99,-99,-99,
want,ascent,8,2,-99,-99,-99,-99,-99,
rock,milk,9,2,-99,-99,-99,-99,-99,
copy,bedroom,10,2,-99,-99,-99,-99,-99,
fee,chowder,11,2,-99,-99,-99,-99,-99,
bias,sirloin,12,2,-99,-99,-99,-99,-99,
bacon,feud,13,2,-99,-99,-99,-99,-99,
pea,bathtub,14,2,-99,-99,-99,-99,-99,
bleach,ruin,15,2,-99,-99,-99,-99,-99,
forest,knob,16,2,-99,-99,-99,-99,-99,
nerve,bumper,17,2,-99,-99,-99,-99,-99,
fan,feature,18,2,-99,-99,-99,-99,-99,
remind,foam,19,2,-99,-99,-99,-99,-99,
need,faucet,20,2,-99,-99,-99,-99,-99,
risk,zero,21,2,-99,-99,-99,-99,-99,
capital,figure,22,2,-99,-99,-99,-99,-99,
smother,surgery,23,2,-99,-99,-99,-99,-99,
caring,skirt,24,2,-99,-99,-99,-99,-99,
anger,decay,25,2,-99,-99,-99,-99,-99,
bullet,walkway,26,2,-99,-99,-99,-99,-99,
prison,loaf,27,2,-99,-99,-99,-99,-99,
pork,emperor,28,2,-99,-99,-99,-99,-99,
banner,glide,29,2,-99,-99,-99,-99,-99,
port,cinema,30,2,-99,-99,-99,-99,-99,
grip,beach,31,2,-99,-99,-99,-99,-99,
replace,roach,32,2,-99,-99,-99,-99,-99,
link,crisis,33,2,-99,-99,-99,-99,-99,
glue,force,34,2,-99,-99,-99,-99,-99,
process,joker,35,2,-99,-99,-99,-99,-99,
knock,otter,36,2,-99,-99,-99,-99,-99,
visit,glove,37,2,-99,-99,-99,-99,-99,
calf,annoy,38,2,-99,-99,-99,-99,-99,
shrink,mafia,39,2,-99,-99,-99,-99,-99,
chicken,beet,40,2,-99,-99,-99,-99,-99,
bleach,ruin,1,3,82,19.276,17.204,0,22.253,
biology,temper,2,3,93,7.726,2.55,0,1.831,
process,joker,3,3,81,2.719,1.553,1,8.703,
link,crisis,4,3,91,14.838,13.736,0,2.063,
anger,decay,5,3,100,6.414,5.223,0,1.518,
bias,sirloin,6,3,91,1.982,0.967,0,0.999,
calf,annoy,7,3,100,2.406,1.255,0,1.623,
banner,glide,8,3,100,2.094,1.127,0,1.015,
chicken,beet,9,3,100,2.088,1.119,0,0.661,
knock,otter,10,3,78,1.751,0.679,0,0.726,
climax,saucer,11,3,93,1.838,0.856,0,1.11,
remind,foam,12,3,91,1.821,0.863,0,0.814,
rock,milk,13,3,94,2.007,1.041,0,0.708,
prison,loaf,14,3,100,1.8,0.848,0,0.757,
plant,worm,15,3,98,3.255,0.72,0,1.127,
nerve,bumper,16,3,99,1.783,0.68,0,1.247,
pork,emperor,17,3,100,2.647,1.648,0,0.886,
fan,feature,18,3,97,2.199,1.183,0,0.783,
pea,bathtub,19,3,95,1.686,0.735,0,0.719,
fee,chowder,20,3,72,1.927,0.727,0,0.735,
collect,loyalty,21,3,96,2.399,0.841,0,1.766,
forest,knob,22,3,98,1.894,0.871,1,4.319,
mill,feast,23,3,93,5.662,4.129,1,1.647,
shrink,mafia,24,3,81,7.518,6.383,1,1.168,
replace,roach,25,3,98,1.934,0.807,1,1.238,
risk,zero,26,3,93,1.734,0.647,1,0.821,
visit,glove,27,3,99,1.768,0.928,1,0.998,
copy,bedroom,28,3,99,1.846,0.918,1,1.206,
date,laugh,29,3,99,1.631,0.703,1,1.038,
smother,surgery,30,3,99,1.854,0.839,1,0.767,
capital,figure,31,3,91,1.542,0.582,1,0.678,
bacon,feud,32,3,93,2.558,1.583,1,0.694,
glue,force,33,3,100,2.094,0.815,1,1.622,
want,ascent,34,3,90,1.783,0.876,1,0.703,
caring,skirt,35,3,95,1.39,0.583,1,0.734,
find,clown,36,3,96,1.647,0.544,1,0.766,
port,cinema,37,3,87,1.641,0.632,1,0.565,
grip,beach,38,3,74,1.575,0.689,1,0.767,
need,faucet,39,3,99,1.591,0.584,1,0.903,
bullet,walkway,40,3,89,1.351,0.52,1,0.655,

