word1,word2,trial,list,jol,jolrt,jolrtfirst,choice,choicert,
nerve,bumper,1,1,-99,-99,-99,-99,-99,
glue,force,2,1,-99,-99,-99,-99,-99,
banner,glide,3,1,-99,-99,-99,-99,-99,
pea,bathtub,4,1,-99,-99,-99,-99,-99,
knock,otter,5,1,-99,-99,-99,-99,-99,
climax,saucer,6,1,-99,-99,-99,-99,-99,
copy,bedroom,7,1,-99,-99,-99,-99,-99,
grip,beach,8,1,-99,-99,-99,-99,-99,
bleach,ruin,9,1,-99,-99,-99,-99,-99,
anger,decay,10,1,-99,-99,-99,-99,-99,
biology,temper,11,1,-99,-99,-99,-99,-99,
link,crisis,12,1,-99,-99,-99,-99,-99,
need,faucet,13,1,-99,-99,-99,-99,-99,
date,laugh,14,1,-99,-99,-99,-99,-99,
smother,surgery,15,1,-99,-99,-99,-99,-99,
process,joker,16,1,-99,-99,-99,-99,-99,
replace,roach,17,1,-99,-99,-99,-99,-99,
collect,loyalty,18,1,-99,-99,-99,-99,-99,
forest,knob,19,1,-99,-99,-99,-99,-99,
bullet,walkway,20,1,-99,-99,-99,-99,-99,
find,clown,21,1,-99,-99,-99,-99,-99,
capital,figure,22,1,-99,-99,-99,-99,-99,
port,cinema,23,1,-99,-99,-99,-99,-99,
prison,loaf,24,1,-99,-99,-99,-99,-99,
fee,chowder,25,1,-99,-99,-99,-99,-99,
risk,zero,26,1,-99,-99,-99,-99,-99,
shrink,mafia,27,1,-99,-99,-99,-99,-99,
mill,feast,28,1,-99,-99,-99,-99,-99,
bacon,feud,29,1,-99,-99,-99,-99,-99,
bias,sirloin,30,1,-99,-99,-99,-99,-99,
rock,milk,31,1,-99,-99,-99,-99,-99,
visit,glove,32,1,-99,-99,-99,-99,-99,
fan,feature,33,1,-99,-99,-99,-99,-99,
remind,foam,34,1,-99,-99,-99,-99,-99,
plant,worm,35,1,-99,-99,-99,-99,-99,
caring,skirt,36,1,-99,-99,-99,-99,-99,
calf,annoy,37,1,-99,-99,-99,-99,-99,
chicken,beet,38,1,-99,-99,-99,-99,-99,
pork,emperor,39,1,-99,-99,-99,-99,-99,
want,ascent,40,1,-99,-99,-99,-99,-99,
bacon,feud,1,2,-99,-99,-99,-99,-99,
biology,temper,2,2,-99,-99,-99,-99,-99,
shrink,mafia,3,2,-99,-99,-99,-99,-99,
rock,milk,4,2,-99,-99,-99,-99,-99,
pea,bathtub,5,2,-99,-99,-99,-99,-99,
need,faucet,6,2,-99,-99,-99,-99,-99,
mill,feast,7,2,-99,-99,-99,-99,-99,
knock,otter,8,2,-99,-99,-99,-99,-99,
smother,surgery,9,2,-99,-99,-99,-99,-99,
anger,decay,10,2,-99,-99,-99,-99,-99,
fee,chowder,11,2,-99,-99,-99,-99,-99,
port,cinema,12,2,-99,-99,-99,-99,-99,
find,clown,13,2,-99,-99,-99,-99,-99,
visit,glove,14,2,-99,-99,-99,-99,-99,
link,crisis,15,2,-99,-99,-99,-99,-99,
calf,annoy,16,2,-99,-99,-99,-99,-99,
remind,foam,17,2,-99,-99,-99,-99,-99,
bias,sirloin,18,2,-99,-99,-99,-99,-99,
caring,skirt,19,2,-99,-99,-99,-99,-99,
copy,bedroom,20,2,-99,-99,-99,-99,-99,
bleach,ruin,21,2,-99,-99,-99,-99,-99,
nerve,bumper,22,2,-99,-99,-99,-99,-99,
climax,saucer,23,2,-99,-99,-99,-99,-99,
collect,loyalty,24,2,-99,-99,-99,-99,-99,
banner,glide,25,2,-99,-99,-99,-99,-99,
prison,loaf,26,2,-99,-99,-99,-99,-99,
bullet,walkway,27,2,-99,-99,-99,-99,-99,
pork,emperor,28,2,-99,-99,-99,-99,-99,
process,joker,29,2,-99,-99,-99,-99,-99,
chicken,beet,30,2,-99,-99,-99,-99,-99,
glue,force,31,2,-99,-99,-99,-99,-99,
replace,roach,32,2,-99,-99,-99,-99,-99,
date,laugh,33,2,-99,-99,-99,-99,-99,
plant,worm,34,2,-99,-99,-99,-99,-99,
grip,beach,35,2,-99,-99,-99,-99,-99,
capital,figure,36,2,-99,-99,-99,-99,-99,
risk,zero,37,2,-99,-99,-99,-99,-99,
fan,feature,38,2,-99,-99,-99,-99,-99,
forest,knob,39,2,-99,-99,-99,-99,-99,
want,ascent,40,2,-99,-99,-99,-99,-99,
bullet,walkway,1,3,14,6.458,3.437,0,5.378,
biology,temper,2,3,25,5.757,3.375,0,0.918,
pea,bathtub,3,3,100,3.001,1.152,1,4.273,
rock,milk,4,3,36,6.031,2.432,0,0.957,
collect,loyalty,5,3,1,2.962,1.203,0,0.713,
calf,annoy,6,3,28,4.907,2.756,0,2.523,
need,faucet,7,3,85,4.585,1.205,1,1.192,
port,cinema,8,3,32,3.137,1.377,0,0.947,
chicken,beet,9,3,87,3.539,1.875,1,1.192,
find,clown,10,3,18,3.587,1.202,0,1.133,
visit,glove,11,3,29,2.815,1.23,0,0.819,
bleach,ruin,12,3,75,5.22,1.613,1,0.674,
date,laugh,13,3,100,3.607,1.807,1,0.888,
shrink,mafia,14,3,100,2.864,1.223,1,0.771,
banner,glide,15,3,66,4.565,2.19,0,1.084,
link,crisis,16,3,57,4.938,2.846,1,1.865,
replace,roach,17,3,14,2.608,1.361,0,1.545,
knock,otter,18,3,27,2.169,1.065,0,0.781,
climax,saucer,19,3,19,4.055,2.56,0,0.919,
bacon,feud,20,3,18,4.183,1.113,0,0.84,
fan,feature,21,3,62,3.431,1.847,1,1.239,
plant,worm,22,3,41,2.658,1.495,0,0.909,
anger,decay,23,3,20,2.677,1.525,0,0.821,
prison,loaf,24,3,14,2.991,1.3,0,0.79,
copy,bedroom,25,3,7,2.199,1.007,0,1.153,
grip,beach,26,3,55,5.854,1.153,0,0.85,
smother,surgery,27,3,21,2.707,1.876,0,0.664,
pork,emperor,28,3,83,2.657,1.426,1,2.327,
bias,sirloin,29,3,1,2.686,1.24,0,0.741,
forest,knob,30,3,33,3.01,1.82,1,0.898,
risk,zero,31,3,18,2.511,0.879,1,0.693,
capital,figure,32,3,20,2.718,1.202,1,0.996,
want,ascent,33,3,7,2.695,1.024,1,0.997,
remind,foam,34,3,12,2.287,1.222,1,1.231,
glue,force,35,3,73,2.502,1.418,1,0.604,
process,joker,36,3,25,2.581,1.379,1,0.908,
fee,chowder,37,3,16,1.797,0.937,1,0.733,
nerve,bumper,38,3,3,2.354,0.78,1,0.83,
caring,skirt,39,3,5,1.728,0.547,1,0.959,
mill,feast,40,3,10,2.715,0.613,1,0.899,

