word1,word2,trial,list,jol,jolrt,jolrtfirst,choice,choicert,
mill,feast,1,1,-99,-99,-99,-99,-99,
port,cinema,2,1,-99,-99,-99,-99,-99,
collect,loyalty,3,1,-99,-99,-99,-99,-99,
forest,knob,4,1,-99,-99,-99,-99,-99,
process,joker,5,1,-99,-99,-99,-99,-99,
calf,annoy,6,1,-99,-99,-99,-99,-99,
find,clown,7,1,-99,-99,-99,-99,-99,
bacon,feud,8,1,-99,-99,-99,-99,-99,
bleach,ruin,9,1,-99,-99,-99,-99,-99,
anger,decay,10,1,-99,-99,-99,-99,-99,
grip,beach,11,1,-99,-99,-99,-99,-99,
prison,loaf,12,1,-99,-99,-99,-99,-99,
pea,bathtub,13,1,-99,-99,-99,-99,-99,
nerve,bumper,14,1,-99,-99,-99,-99,-99,
shrink,mafia,15,1,-99,-99,-99,-99,-99,
fee,chowder,16,1,-99,-99,-99,-99,-99,
visit,glove,17,1,-99,-99,-99,-99,-99,
bullet,walkway,18,1,-99,-99,-99,-99,-99,
remind,foam,19,1,-99,-99,-99,-99,-99,
glue,force,20,1,-99,-99,-99,-99,-99,
rock,milk,21,1,-99,-99,-99,-99,-99,
banner,glide,22,1,-99,-99,-99,-99,-99,
bias,sirloin,23,1,-99,-99,-99,-99,-99,
link,crisis,24,1,-99,-99,-99,-99,-99,
date,laugh,25,1,-99,-99,-99,-99,-99,
biology,temper,26,1,-99,-99,-99,-99,-99,
caring,skirt,27,1,-99,-99,-99,-99,-99,
risk,zero,28,1,-99,-99,-99,-99,-99,
knock,otter,29,1,-99,-99,-99,-99,-99,
pork,emperor,30,1,-99,-99,-99,-99,-99,
want,ascent,31,1,-99,-99,-99,-99,-99,
copy,bedroom,32,1,-99,-99,-99,-99,-99,
fan,feature,33,1,-99,-99,-99,-99,-99,
replace,roach,34,1,-99,-99,-99,-99,-99,
plant,worm,35,1,-99,-99,-99,-99,-99,
need,faucet,36,1,-99,-99,-99,-99,-99,
chicken,beet,37,1,-99,-99,-99,-99,-99,
climax,saucer,38,1,-99,-99,-99,-99,-99,
capital,figure,39,1,-99,-99,-99,-99,-99,
smother,surgery,40,1,-99,-99,-99,-99,-99,
find,clown,1,2,-99,-99,-99,-99,-99,
date,laugh,2,2,-99,-99,-99,-99,-99,
remind,foam,3,2,-99,-99,-99,-99,-99,
process,joker,4,2,-99,-99,-99,-99,-99,
want,ascent,5,2,-99,-99,-99,-99,-99,
climax,saucer,6,2,-99,-99,-99,-99,-99,
forest,knob,7,2,-99,-99,-99,-99,-99,
link,crisis,8,2,-99,-99,-99,-99,-99,
glue,force,9,2,-99,-99,-99,-99,-99,
chicken,beet,10,2,-99,-99,-99,-99,-99,
anger,decay,11,2,-99,-99,-99,-99,-99,
port,cinema,12,2,-99,-99,-99,-99,-99,
bleach,ruin,13,2,-99,-99,-99,-99,-99,
smother,surgery,14,2,-99,-99,-99,-99,-99,
need,faucet,15,2,-99,-99,-99,-99,-99,
grip,beach,16,2,-99,-99,-99,-99,-99,
fan,feature,17,2,-99,-99,-99,-99,-99,
collect,loyalty,18,2,-99,-99,-99,-99,-99,
visit,glove,19,2,-99,-99,-99,-99,-99,
copy,bedroom,20,2,-99,-99,-99,-99,-99,
mill,feast,21,2,-99,-99,-99,-99,-99,
plant,worm,22,2,-99,-99,-99,-99,-99,
bacon,feud,23,2,-99,-99,-99,-99,-99,
pork,emperor,24,2,-99,-99,-99,-99,-99,
calf,annoy,25,2,-99,-99,-99,-99,-99,
rock,milk,26,2,-99,-99,-99,-99,-99,
banner,glide,27,2,-99,-99,-99,-99,-99,
knock,otter,28,2,-99,-99,-99,-99,-99,
replace,roach,29,2,-99,-99,-99,-99,-99,
risk,zero,30,2,-99,-99,-99,-99,-99,
bias,sirloin,31,2,-99,-99,-99,-99,-99,
pea,bathtub,32,2,-99,-99,-99,-99,-99,
fee,chowder,33,2,-99,-99,-99,-99,-99,
nerve,bumper,34,2,-99,-99,-99,-99,-99,
bullet,walkway,35,2,-99,-99,-99,-99,-99,
shrink,mafia,36,2,-99,-99,-99,-99,-99,
caring,skirt,37,2,-99,-99,-99,-99,-99,
prison,loaf,38,2,-99,-99,-99,-99,-99,
biology,temper,39,2,-99,-99,-99,-99,-99,
capital,figure,40,2,-99,-99,-99,-99,-99,
biology,temper,1,3,1,15.926,8.073,0,11.007,
port,cinema,2,3,18,11.599,10.031,0,1.392,
copy,bedroom,3,3,38,6.104,3.113,0,1.304,
chicken,beet,4,3,100,3.456,2.465,1,0.936,
forest,knob,5,3,14,11.679,10.056,0,0.975,
risk,zero,6,3,15,4.016,2.88,0,1.136,
anger,decay,7,3,2,4.184,2.833,0,0.736,
fee,chowder,8,3,1,3.975,2.84,0,1.279,
link,crisis,9,3,93,3.959,2.656,1,0.944,
calf,annoy,10,3,12,12.352,11.35,0,0.607,
smother,surgery,11,3,10,6.263,5.408,0,0.88,
nerve,bumper,12,3,15,2.176,1.21,0,0.592,
mill,feast,13,3,11,2.56,0.968,0,0.743,
prison,loaf,14,3,15,2.127,1.304,0,0.735,
glue,force,15,3,15,1.991,1.056,0,0.864,
grip,beach,16,3,12,2.368,1.57,0,0.56,
visit,glove,17,3,8,2.568,1.529,0,0.976,
bias,sirloin,18,3,4,4.759,2.201,0,1.336,
bacon,feud,19,3,79,16.688,14.826,1,1.175,
banner,glide,20,3,8,2.903,1.953,0,0.832,
date,laugh,21,3,8,4.519,3.601,0,1.08,
need,faucet,22,3,3,1.855,1.064,0,0.928,
caring,skirt,23,3,5,1.743,0.873,0,0.791,
process,joker,24,3,6,5.983,4.607,1,1.159,
bullet,walkway,25,3,6,2.135,1.064,1,1.207,
climax,saucer,26,3,10,4.415,2.738,1,1.664,
replace,roach,27,3,3,4.168,3.234,1,1.145,
plant,worm,28,3,6,3.743,2.218,1,2.184,
find,clown,29,3,17,2.687,1.607,1,1.008,
pea,bathtub,30,3,78,21.287,20.173,1,1.607,
bleach,ruin,31,3,20,25.087,24.297,1,1.247,
knock,otter,32,3,30,3.608,1.418,1,0.872,
rock,milk,33,3,28,1.368,0.649,1,0.856,
collect,loyalty,34,3,25,1.393,0.568,1,0.887,
want,ascent,35,3,1,1.647,0.714,1,0.808,
capital,figure,36,3,77,8.424,0.756,1,1.128,
pork,emperor,37,3,90,5.328,4.4,1,4.248,
remind,foam,38,3,9,7.767,5.977,1,0.847,
fan,feature,39,3,21,2.063,1.146,1,0.759,
shrink,mafia,40,3,13,2.407,1.529,1,0.703,

