word1,word2,trial,list,jol,jolrt,jolrtfirst,choice,choicert,
smother,surgery,1,1,-99,-99,-99,-99,-99,
biology,temper,2,1,-99,-99,-99,-99,-99,
forest,knob,3,1,-99,-99,-99,-99,-99,
port,cinema,4,1,-99,-99,-99,-99,-99,
pea,bathtub,5,1,-99,-99,-99,-99,-99,
knock,otter,6,1,-99,-99,-99,-99,-99,
need,faucet,7,1,-99,-99,-99,-99,-99,
remind,foam,8,1,-99,-99,-99,-99,-99,
find,clown,9,1,-99,-99,-99,-99,-99,
prison,loaf,10,1,-99,-99,-99,-99,-99,
process,joker,11,1,-99,-99,-99,-99,-99,
banner,glide,12,1,-99,-99,-99,-99,-99,
copy,bedroom,13,1,-99,-99,-99,-99,-99,
fan,feature,14,1,-99,-99,-99,-99,-99,
bias,sirloin,15,1,-99,-99,-99,-99,-99,
rock,milk,16,1,-99,-99,-99,-99,-99,
climax,saucer,17,1,-99,-99,-99,-99,-99,
anger,decay,18,1,-99,-99,-99,-99,-99,
visit,glove,19,1,-99,-99,-99,-99,-99,
nerve,bumper,20,1,-99,-99,-99,-99,-99,
plant,worm,21,1,-99,-99,-99,-99,-99,
bleach,ruin,22,1,-99,-99,-99,-99,-99,
grip,beach,23,1,-99,-99,-99,-99,-99,
capital,figure,24,1,-99,-99,-99,-99,-99,
want,ascent,25,1,-99,-99,-99,-99,-99,
pork,emperor,26,1,-99,-99,-99,-99,-99,
collect,loyalty,27,1,-99,-99,-99,-99,-99,
calf,annoy,28,1,-99,-99,-99,-99,-99,
glue,force,29,1,-99,-99,-99,-99,-99,
shrink,mafia,30,1,-99,-99,-99,-99,-99,
bacon,feud,31,1,-99,-99,-99,-99,-99,
bullet,walkway,32,1,-99,-99,-99,-99,-99,
date,laugh,33,1,-99,-99,-99,-99,-99,
fee,chowder,34,1,-99,-99,-99,-99,-99,
risk,zero,35,1,-99,-99,-99,-99,-99,
replace,roach,36,1,-99,-99,-99,-99,-99,
caring,skirt,37,1,-99,-99,-99,-99,-99,
link,crisis,38,1,-99,-99,-99,-99,-99,
chicken,beet,39,1,-99,-99,-99,-99,-99,
mill,feast,40,1,-99,-99,-99,-99,-99,
knock,otter,1,2,-99,-99,-99,-99,-99,
caring,skirt,2,2,-99,-99,-99,-99,-99,
pea,bathtub,3,2,-99,-99,-99,-99,-99,
pork,emperor,4,2,-99,-99,-99,-99,-99,
forest,knob,5,2,-99,-99,-99,-99,-99,
nerve,bumper,6,2,-99,-99,-99,-99,-99,
need,faucet,7,2,-99,-99,-99,-99,-99,
mill,feast,8,2,-99,-99,-99,-99,-99,
want,ascent,9,2,-99,-99,-99,-99,-99,
date,laugh,10,2,-99,-99,-99,-99,-99,
replace,roach,11,2,-99,-99,-99,-99,-99,
climax,saucer,12,2,-99,-99,-99,-99,-99,
capital,figure,13,2,-99,-99,-99,-99,-99,
banner,glide,14,2,-99,-99,-99,-99,-99,
bullet,walkway,15,2,-99,-99,-99,-99,-99,
bias,sirloin,16,2,-99,-99,-99,-99,-99,
calf,annoy,17,2,-99,-99,-99,-99,-99,
prison,loaf,18,2,-99,-99,-99,-99,-99,
collect,loyalty,19,2,-99,-99,-99,-99,-99,
link,crisis,20,2,-99,-99,-99,-99,-99,
bacon,feud,21,2,-99,-99,-99,-99,-99,
chicken,beet,22,2,-99,-99,-99,-99,-99,
plant,worm,23,2,-99,-99,-99,-99,-99,
rock,milk,24,2,-99,-99,-99,-99,-99,
remind,foam,25,2,-99,-99,-99,-99,-99,
visit,glove,26,2,-99,-99,-99,-99,-99,
shrink,mafia,27,2,-99,-99,-99,-99,-99,
smother,surgery,28,2,-99,-99,-99,-99,-99,
port,cinema,29,2,-99,-99,-99,-99,-99,
grip,beach,30,2,-99,-99,-99,-99,-99,
process,joker,31,2,-99,-99,-99,-99,-99,
bleach,ruin,32,2,-99,-99,-99,-99,-99,
anger,decay,33,2,-99,-99,-99,-99,-99,
copy,bedroom,34,2,-99,-99,-99,-99,-99,
find,clown,35,2,-99,-99,-99,-99,-99,
fan,feature,36,2,-99,-99,-99,-99,-99,
biology,temper,37,2,-99,-99,-99,-99,-99,
risk,zero,38,2,-99,-99,-99,-99,-99,
fee,chowder,39,2,-99,-99,-99,-99,-99,
glue,force,40,2,-99,-99,-99,-99,-99,
shrink,mafia,1,3,32,13.733,9.186,1,13.145,
capital,figure,2,3,20,10.969,8.508,1,5.813,
find,clown,3,3,22,12.265,6.942,1,2.002,
anger,decay,4,3,13,9.136,5.865,0,1.727,
copy,bedroom,5,3,20,12.835,6.616,1,4.182,
process,joker,6,3,25,7.2,2.4,1,3.601,
knock,otter,7,3,26,7.255,3.142,1,1.439,
link,crisis,8,3,18,13.673,9.842,0,1.838,
smother,surgery,9,3,25,11.634,5.708,1,3.703,
collect,loyalty,10,3,14,21.407,4.192,0,1.369,
remind,foam,11,3,9,6.687,3.201,0,1.351,
forest,knob,12,3,28,6.44,2.253,1,1.828,
risk,zero,13,3,64,46.687,26.015,0,1.692,
mill,feast,14,3,21,8.429,3.96,0,1.334,
pea,bathtub,15,3,30,6.334,2.488,1,1.558,
bias,sirloin,16,3,33,11.062,6.195,1,1.702,
chicken,beet,17,3,58,4.87,3.088,1,1.366,
visit,glove,18,3,34,5.719,2.214,1,1.333,
bleach,ruin,19,3,32,6.358,3.999,1,1.167,
bacon,feud,20,3,30,5.638,3.887,1,1.142,
grip,beach,21,3,21,5.402,1.961,1,1.086,
fee,chowder,22,3,18,12.708,9.341,0,2.479,
caring,skirt,23,3,39,4.745,2.646,1,1.458,
prison,loaf,24,3,34,9.238,5.174,1,1.19,
banner,glide,25,3,23,9.974,5.348,0,2.294,
date,laugh,26,3,54,9.206,4.654,0,21.362,
replace,roach,27,3,41,9.262,6.867,1,1.465,
rock,milk,28,3,62,4.95,3.007,1,0.942,
glue,force,29,3,42,4.55,2.598,1,1.044,
plant,worm,30,3,17,11.686,8.911,0,3.374,
climax,saucer,31,3,39,5.286,3.375,0,1.246,
fan,feature,32,3,34,7.388,2.902,0,1.357,
port,cinema,33,3,41,7.834,5.069,0,1.855,
biology,temper,34,3,24,4.823,2.472,0,1.399,
calf,annoy,35,3,42,4.861,3.092,0,1.382,
need,faucet,36,3,26,11.893,9.238,0,1.127,
nerve,bumper,37,3,24,10.069,8.291,0,1.454,
bullet,walkway,38,3,60,6.027,3.27,0,1.265,
want,ascent,39,3,10,5.749,2.369,0,1.39,
pork,emperor,40,3,61,4.965,3.406,0,1.15,

