word1,word2,trial,list,jol,jolrt,jolrtfirst,choice,choicert,
pork,emperor,1,1,-99,-99,-99,-99,-99,
banner,glide,2,1,-99,-99,-99,-99,-99,
fan,feature,3,1,-99,-99,-99,-99,-99,
bleach,ruin,4,1,-99,-99,-99,-99,-99,
want,ascent,5,1,-99,-99,-99,-99,-99,
knock,otter,6,1,-99,-99,-99,-99,-99,
prison,loaf,7,1,-99,-99,-99,-99,-99,
forest,knob,8,1,-99,-99,-99,-99,-99,
calf,annoy,9,1,-99,-99,-99,-99,-99,
link,crisis,10,1,-99,-99,-99,-99,-99,
remind,foam,11,1,-99,-99,-99,-99,-99,
climax,saucer,12,1,-99,-99,-99,-99,-99,
chicken,beet,13,1,-99,-99,-99,-99,-99,
date,laugh,14,1,-99,-99,-99,-99,-99,
nerve,bumper,15,1,-99,-99,-99,-99,-99,
find,clown,16,1,-99,-99,-99,-99,-99,
shrink,mafia,17,1,-99,-99,-99,-99,-99,
capital,figure,18,1,-99,-99,-99,-99,-99,
rock,milk,19,1,-99,-99,-99,-99,-99,
anger,decay,20,1,-99,-99,-99,-99,-99,
replace,roach,21,1,-99,-99,-99,-99,-99,
fee,chowder,22,1,-99,-99,-99,-99,-99,
visit,glove,23,1,-99,-99,-99,-99,-99,
bacon,feud,24,1,-99,-99,-99,-99,-99,
grip,beach,25,1,-99,-99,-99,-99,-99,
risk,zero,26,1,-99,-99,-99,-99,-99,
bias,sirloin,27,1,-99,-99,-99,-99,-99,
bullet,walkway,28,1,-99,-99,-99,-99,-99,
glue,force,29,1,-99,-99,-99,-99,-99,
biology,temper,30,1,-99,-99,-99,-99,-99,
port,cinema,31,1,-99,-99,-99,-99,-99,
process,joker,32,1,-99,-99,-99,-99,-99,
smother,surgery,33,1,-99,-99,-99,-99,-99,
copy,bedroom,34,1,-99,-99,-99,-99,-99,
collect,loyalty,35,1,-99,-99,-99,-99,-99,
caring,skirt,36,1,-99,-99,-99,-99,-99,
plant,worm,37,1,-99,-99,-99,-99,-99,
pea,bathtub,38,1,-99,-99,-99,-99,-99,
need,faucet,39,1,-99,-99,-99,-99,-99,
mill,feast,40,1,-99,-99,-99,-99,-99,
collect,loyalty,1,2,-99,-99,-99,-99,-99,
copy,bedroom,2,2,-99,-99,-99,-99,-99,
plant,worm,3,2,-99,-99,-99,-99,-99,
port,cinema,4,2,-99,-99,-99,-99,-99,
glue,force,5,2,-99,-99,-99,-99,-99,
find,clown,6,2,-99,-99,-99,-99,-99,
remind,foam,7,2,-99,-99,-99,-99,-99,
shrink,mafia,8,2,-99,-99,-99,-99,-99,
process,joker,9,2,-99,-99,-99,-99,-99,
biology,temper,10,2,-99,-99,-99,-99,-99,
rock,milk,11,2,-99,-99,-99,-99,-99,
date,laugh,12,2,-99,-99,-99,-99,-99,
want,ascent,13,2,-99,-99,-99,-99,-99,
fee,chowder,14,2,-99,-99,-99,-99,-99,
capital,figure,15,2,-99,-99,-99,-99,-99,
forest,knob,16,2,-99,-99,-99,-99,-99,
link,crisis,17,2,-99,-99,-99,-99,-99,
replace,roach,18,2,-99,-99,-99,-99,-99,
banner,glide,19,2,-99,-99,-99,-99,-99,
calf,annoy,20,2,-99,-99,-99,-99,-99,
need,faucet,21,2,-99,-99,-99,-99,-99,
knock,otter,22,2,-99,-99,-99,-99,-99,
climax,saucer,23,2,-99,-99,-99,-99,-99,
bullet,walkway,24,2,-99,-99,-99,-99,-99,
bias,sirloin,25,2,-99,-99,-99,-99,-99,
visit,glove,26,2,-99,-99,-99,-99,-99,
fan,feature,27,2,-99,-99,-99,-99,-99,
grip,beach,28,2,-99,-99,-99,-99,-99,
caring,skirt,29,2,-99,-99,-99,-99,-99,
bleach,ruin,30,2,-99,-99,-99,-99,-99,
smother,surgery,31,2,-99,-99,-99,-99,-99,
pork,emperor,32,2,-99,-99,-99,-99,-99,
bacon,feud,33,2,-99,-99,-99,-99,-99,
pea,bathtub,34,2,-99,-99,-99,-99,-99,
risk,zero,35,2,-99,-99,-99,-99,-99,
nerve,bumper,36,2,-99,-99,-99,-99,-99,
prison,loaf,37,2,-99,-99,-99,-99,-99,
anger,decay,38,2,-99,-99,-99,-99,-99,
mill,feast,39,2,-99,-99,-99,-99,-99,
chicken,beet,40,2,-99,-99,-99,-99,-99,
want,ascent,1,3,25,5.286,3.36,0,10.723,
pea,bathtub,2,3,90,3.999,1.929,1,5.705,
climax,saucer,3,3,19,3.138,1.982,0,0.828,
knock,otter,4,3,90,5.12,2.438,1,0.984,
nerve,bumper,5,3,90,3.615,1.43,1,0.743,
pork,emperor,6,3,100,2.367,1.229,1,0.768,
bias,sirloin,7,3,27,2.177,1.131,0,0.839,
smother,surgery,8,3,100,2.503,1.18,1,0.722,
find,clown,9,3,33,2.14,1.103,0,0.768,
bleach,ruin,10,3,100,2.621,1.557,1,1.514,
capital,figure,11,3,33,2.099,1.155,0,0.693,
copy,bedroom,12,3,31,1.921,0.964,0,0.836,
forest,knob,13,3,100,2.132,1.105,1,0.798,
chicken,beet,14,3,75,2.811,1.038,1,0.685,
remind,foam,15,3,38,3.413,1.618,0,0.914,
port,cinema,16,3,20,2.047,1.058,0,0.818,
need,faucet,17,3,31,2.995,1.053,0,0.789,
shrink,mafia,18,3,100,2.394,1.07,1,0.809,
caring,skirt,19,3,33,2.004,0.911,0,1.001,
biology,temper,20,3,83,5.848,1.677,1,1.099,
mill,feast,21,3,80,3.135,1.358,1,0.779,
fan,feature,22,3,30,2.433,1.241,0,1.014,
glue,force,23,3,63,2.283,1.161,1,0.744,
calf,annoy,24,3,39,2.375,1.232,0,0.912,
collect,loyalty,25,3,36,1.999,0.857,0,0.733,
process,joker,26,3,38,3.677,1.144,0,0.773,
rock,milk,27,3,77,1.749,0.804,1,0.72,
prison,loaf,28,3,100,3.288,1.011,1,0.886,
date,laugh,29,3,72,3.43,1.955,1,0.705,
bullet,walkway,30,3,23,2.016,1.002,0,0.773,
plant,worm,31,3,25,2.196,1.232,0,0.807,
risk,zero,32,3,33,4.435,1.871,0,0.795,
fee,chowder,33,3,28,2.18,1.095,0,0.73,
bacon,feud,34,3,34,10.58,0.981,0,0.819,
visit,glove,35,3,36,2.614,1.824,0,0.938,
grip,beach,36,3,29,3.184,1.19,1,1.866,
replace,roach,37,3,22,2.534,1.071,1,0.873,
anger,decay,38,3,31,3.218,0.979,1,0.803,
banner,glide,39,3,86,3.999,1.149,1,0.709,
link,crisis,40,3,29,1.648,0.944,1,0.647,

