word1,word2,trial,list,jol,jolrt,jolrtfirst,choice,choicert,
visit,glove,1,1,-99,-99,-99,-99,-99,
climax,saucer,2,1,-99,-99,-99,-99,-99,
fan,feature,3,1,-99,-99,-99,-99,-99,
prison,loaf,4,1,-99,-99,-99,-99,-99,
port,cinema,5,1,-99,-99,-99,-99,-99,
copy,bedroom,6,1,-99,-99,-99,-99,-99,
risk,zero,7,1,-99,-99,-99,-99,-99,
bleach,ruin,8,1,-99,-99,-99,-99,-99,
anger,decay,9,1,-99,-99,-99,-99,-99,
pork,emperor,10,1,-99,-99,-99,-99,-99,
knock,otter,11,1,-99,-99,-99,-99,-99,
find,clown,12,1,-99,-99,-99,-99,-99,
grip,beach,13,1,-99,-99,-99,-99,-99,
collect,loyalty,14,1,-99,-99,-99,-99,-99,
caring,skirt,15,1,-99,-99,-99,-99,-99,
biology,temper,16,1,-99,-99,-99,-99,-99,
forest,knob,17,1,-99,-99,-99,-99,-99,
link,crisis,18,1,-99,-99,-99,-99,-99,
pea,bathtub,19,1,-99,-99,-99,-99,-99,
rock,milk,20,1,-99,-99,-99,-99,-99,
want,ascent,21,1,-99,-99,-99,-99,-99,
mill,feast,22,1,-99,-99,-99,-99,-99,
chicken,beet,23,1,-99,-99,-99,-99,-99,
banner,glide,24,1,-99,-99,-99,-99,-99,
smother,surgery,25,1,-99,-99,-99,-99,-99,
nerve,bumper,26,1,-99,-99,-99,-99,-99,
bullet,walkway,27,1,-99,-99,-99,-99,-99,
shrink,mafia,28,1,-99,-99,-99,-99,-99,
date,laugh,29,1,-99,-99,-99,-99,-99,
capital,figure,30,1,-99,-99,-99,-99,-99,
bias,sirloin,31,1,-99,-99,-99,-99,-99,
fee,chowder,32,1,-99,-99,-99,-99,-99,
plant,worm,33,1,-99,-99,-99,-99,-99,
process,joker,34,1,-99,-99,-99,-99,-99,
calf,annoy,35,1,-99,-99,-99,-99,-99,
bacon,feud,36,1,-99,-99,-99,-99,-99,
remind,foam,37,1,-99,-99,-99,-99,-99,
need,faucet,38,1,-99,-99,-99,-99,-99,
glue,force,39,1,-99,-99,-99,-99,-99,
replace,roach,40,1,-99,-99,-99,-99,-99,
pork,emperor,1,2,-99,-99,-99,-99,-99,
want,ascent,2,2,-99,-99,-99,-99,-99,
bleach,ruin,3,2,-99,-99,-99,-99,-99,
bacon,feud,4,2,-99,-99,-99,-99,-99,
forest,knob,5,2,-99,-99,-99,-99,-99,
need,faucet,6,2,-99,-99,-99,-99,-99,
bias,sirloin,7,2,-99,-99,-99,-99,-99,
mill,feast,8,2,-99,-99,-99,-99,-99,
climax,saucer,9,2,-99,-99,-99,-99,-99,
anger,decay,10,2,-99,-99,-99,-99,-99,
remind,foam,11,2,-99,-99,-99,-99,-99,
risk,zero,12,2,-99,-99,-99,-99,-99,
calf,annoy,13,2,-99,-99,-99,-99,-99,
replace,roach,14,2,-99,-99,-99,-99,-99,
glue,force,15,2,-99,-99,-99,-99,-99,
shrink,mafia,16,2,-99,-99,-99,-99,-99,
caring,skirt,17,2,-99,-99,-99,-99,-99,
bullet,walkway,18,2,-99,-99,-99,-99,-99,
chicken,beet,19,2,-99,-99,-99,-99,-99,
link,crisis,20,2,-99,-99,-99,-99,-99,
port,cinema,21,2,-99,-99,-99,-99,-99,
rock,milk,22,2,-99,-99,-99,-99,-99,
nerve,bumper,23,2,-99,-99,-99,-99,-99,
knock,otter,24,2,-99,-99,-99,-99,-99,
copy,bedroom,25,2,-99,-99,-99,-99,-99,
fan,feature,26,2,-99,-99,-99,-99,-99,
find,clown,27,2,-99,-99,-99,-99,-99,
pea,bathtub,28,2,-99,-99,-99,-99,-99,
prison,loaf,29,2,-99,-99,-99,-99,-99,
biology,temper,30,2,-99,-99,-99,-99,-99,
collect,loyalty,31,2,-99,-99,-99,-99,-99,
plant,worm,32,2,-99,-99,-99,-99,-99,
banner,glide,33,2,-99,-99,-99,-99,-99,
smother,surgery,34,2,-99,-99,-99,-99,-99,
fee,chowder,35,2,-99,-99,-99,-99,-99,
date,laugh,36,2,-99,-99,-99,-99,-99,
capital,figure,37,2,-99,-99,-99,-99,-99,
grip,beach,38,2,-99,-99,-99,-99,-99,
process,joker,39,2,-99,-99,-99,-99,-99,
visit,glove,40,2,-99,-99,-99,-99,-99,
bleach,ruin,1,3,23,4.292,2.717,0,8.343,
pork,emperor,2,3,31,2.759,1.424,0,1.724,
bacon,feud,3,3,17,2.381,1.185,0,0.843,
chicken,beet,4,3,22,2.185,1.026,0,0.803,
biology,temper,5,3,3,2.159,0.961,0,0.818,
port,cinema,6,3,2,2.374,1.06,0,0.959,
grip,beach,7,3,20,1.85,0.72,0,1.017,
calf,annoy,8,3,23,52.711,9.747,0,1.071,
forest,knob,9,3,31,1.91,0.766,0,0.879,
knock,otter,10,3,21,4.007,0.392,0,0.891,
risk,zero,11,3,26,1.741,0.615,0,0.92,
glue,force,12,3,16,2.002,0.673,1,0.918,
find,clown,13,3,14,3.147,1.656,0,1.17,
fan,feature,14,3,20,1.913,0.858,0,0.841,
remind,foam,15,3,14,2.282,1.008,0,0.868,
date,laugh,16,3,10,1.709,0.783,0,0.782,
mill,feast,17,3,10,1.371,0.408,0,0.879,
visit,glove,18,3,14,1.772,0.675,0,0.866,
rock,milk,19,3,10,1.544,0.674,0,4.067,
bias,sirloin,20,3,14,4.329,3.516,0,0.952,
plant,worm,21,3,41,1.533,0.342,0,1.104,
caring,skirt,22,3,26,1.476,0.53,1,1.02,
nerve,bumper,23,3,52,1.862,0.814,1,0.852,
prison,loaf,24,3,10,1.571,0.494,1,0.884,
need,faucet,25,3,17,2.489,1.21,1,0.87,
link,crisis,26,3,16,2.604,0.985,1,4.997,
replace,roach,27,3,21,1.546,0.701,1,1.043,
smother,surgery,28,3,14,1.736,0.709,1,1.242,
shrink,mafia,29,3,18,1.603,0.675,1,1.434,
bullet,walkway,30,3,6,1.927,0.9,1,1.204,
capital,figure,31,3,16,1.762,0.865,1,0.842,
banner,glide,32,3,25,1.146,0.363,1,1.223,
anger,decay,33,3,13,1.564,0.56,1,0.931,
climax,saucer,34,3,11,2.025,1.094,1,0.828,
collect,loyalty,35,3,27,2.004,0.853,1,1.692,
copy,bedroom,36,3,7,1.861,0.621,1,0.813,
process,joker,37,3,12,2.506,1.237,1,1.292,
want,ascent,38,3,11,1.471,0.648,1,2.89,
fee,chowder,39,3,21,1.964,0.453,1,1.497,
pea,bathtub,40,3,4,1.794,0.92,1,0.954,

