word1,word2,trial,list,jol,jolrt,jolrtfirst,choice,choicert,
knock,otter,1,1,-99,-99,-99,-99,-99,
visit,glove,2,1,-99,-99,-99,-99,-99,
biology,temper,3,1,-99,-99,-99,-99,-99,
glue,force,4,1,-99,-99,-99,-99,-99,
find,clown,5,1,-99,-99,-99,-99,-99,
rock,milk,6,1,-99,-99,-99,-99,-99,
bleach,ruin,7,1,-99,-99,-99,-99,-99,
prison,loaf,8,1,-99,-99,-99,-99,-99,
nerve,bumper,9,1,-99,-99,-99,-99,-99,
date,laugh,10,1,-99,-99,-99,-99,-99,
port,cinema,11,1,-99,-99,-99,-99,-99,
link,crisis,12,1,-99,-99,-99,-99,-99,
chicken,beet,13,1,-99,-99,-99,-99,-99,
plant,worm,14,1,-99,-99,-99,-99,-99,
bias,sirloin,15,1,-99,-99,-99,-99,-99,
remind,foam,16,1,-99,-99,-99,-99,-99,
pea,bathtub,17,1,-99,-99,-99,-99,-99,
caring,skirt,18,1,-99,-99,-99,-99,-99,
need,faucet,19,1,-99,-99,-99,-99,-99,
process,joker,20,1,-99,-99,-99,-99,-99,
risk,zero,21,1,-99,-99,-99,-99,-99,
copy,bedroom,22,1,-99,-99,-99,-99,-99,
banner,glide,23,1,-99,-99,-99,-99,-99,
bacon,feud,24,1,-99,-99,-99,-99,-99,
fee,chowder,25,1,-99,-99,-99,-99,-99,
anger,decay,26,1,-99,-99,-99,-99,-99,
replace,roach,27,1,-99,-99,-99,-99,-99,
forest,knob,28,1,-99,-99,-99,-99,-99,
want,ascent,29,1,-99,-99,-99,-99,-99,
fan,feature,30,1,-99,-99,-99,-99,-99,
grip,beach,31,1,-99,-99,-99,-99,-99,
smother,surgery,32,1,-99,-99,-99,-99,-99,
calf,annoy,33,1,-99,-99,-99,-99,-99,
climax,saucer,34,1,-99,-99,-99,-99,-99,
capital,figure,35,1,-99,-99,-99,-99,-99,
mill,feast,36,1,-99,-99,-99,-99,-99,
collect,loyalty,37,1,-99,-99,-99,-99,-99,
bullet,walkway,38,1,-99,-99,-99,-99,-99,
pork,emperor,39,1,-99,-99,-99,-99,-99,
shrink,mafia,40,1,-99,-99,-99,-99,-99,
find,clown,1,2,-99,-99,-99,-99,-99,
remind,foam,2,2,-99,-99,-99,-99,-99,
capital,figure,3,2,-99,-99,-99,-99,-99,
nerve,bumper,4,2,-99,-99,-99,-99,-99,
collect,loyalty,5,2,-99,-99,-99,-99,-99,
plant,worm,6,2,-99,-99,-99,-99,-99,
copy,bedroom,7,2,-99,-99,-99,-99,-99,
visit,glove,8,2,-99,-99,-99,-99,-99,
shrink,mafia,9,2,-99,-99,-99,-99,-99,
bacon,feud,10,2,-99,-99,-99,-99,-99,
knock,otter,11,2,-99,-99,-99,-99,-99,
mill,feast,12,2,-99,-99,-99,-99,-99,
replace,roach,13,2,-99,-99,-99,-99,-99,
grip,beach,14,2,-99,-99,-99,-99,-99,
rock,milk,15,2,-99,-99,-99,-99,-99,
process,joker,16,2,-99,-99,-99,-99,-99,
glue,force,17,2,-99,-99,-99,-99,-99,
caring,skirt,18,2,-99,-99,-99,-99,-99,
banner,glide,19,2,-99,-99,-99,-99,-99,
pea,bathtub,20,2,-99,-99,-99,-99,-99,
fee,chowder,21,2,-99,-99,-99,-99,-99,
want,ascent,22,2,-99,-99,-99,-99,-99,
calf,annoy,23,2,-99,-99,-99,-99,-99,
biology,temper,24,2,-99,-99,-99,-99,-99,
need,faucet,25,2,-99,-99,-99,-99,-99,
anger,decay,26,2,-99,-99,-99,-99,-99,
smother,surgery,27,2,-99,-99,-99,-99,-99,
link,crisis,28,2,-99,-99,-99,-99,-99,
bias,sirloin,29,2,-99,-99,-99,-99,-99,
pork,emperor,30,2,-99,-99,-99,-99,-99,
prison,loaf,31,2,-99,-99,-99,-99,-99,
bleach,ruin,32,2,-99,-99,-99,-99,-99,
fan,feature,33,2,-99,-99,-99,-99,-99,
climax,saucer,34,2,-99,-99,-99,-99,-99,
forest,knob,35,2,-99,-99,-99,-99,-99,
risk,zero,36,2,-99,-99,-99,-99,-99,
date,laugh,37,2,-99,-99,-99,-99,-99,
chicken,beet,38,2,-99,-99,-99,-99,-99,
bullet,walkway,39,2,-99,-99,-99,-99,-99,
port,cinema,40,2,-99,-99,-99,-99,-99,
need,faucet,1,3,78,7.799,4.364,1,3.655,
banner,glide,2,3,67,6.106,4.002,1,1.908,
forest,knob,3,3,30,3.638,0.028,1,5.048,
risk,zero,4,3,67,2.673,1.22,1,1.677,
port,cinema,5,3,63,3.682,2.322,1,2.417,
link,crisis,6,3,40,2.968,1.519,1,2.266,
find,clown,7,3,55,3.121,1.683,1,1.567,
fee,chowder,8,3,41,2.654,1.27,1,1.705,
glue,force,9,3,59,4.715,3.236,1,1.742,
rock,milk,10,3,65,2.973,1.311,1,1.756,
replace,roach,11,3,35,4.775,3.195,1,1.931,
calf,annoy,12,3,38,2.862,1.425,1,2.886,
date,laugh,13,3,44,4.618,3.089,1,1.839,
pea,bathtub,14,3,37,2.577,1.175,1,1.129,
want,ascent,15,3,64,2.777,1.389,1,1.608,
anger,decay,16,3,17,2.568,1.061,1,1.509,
chicken,beet,17,3,36,1.914,0.95,1,1.702,
prison,loaf,18,3,63,2.953,1.34,1,3.309,
smother,surgery,19,3,34,2.786,1.275,1,1.88,
shrink,mafia,20,3,59,2.732,1.376,1,1.442,
pork,emperor,21,3,63,5.514,3.689,0,1.782,
plant,worm,22,3,67,3.586,2.224,0,1.401,
biology,temper,23,3,67,2.477,1.002,0,41.031,
nerve,bumper,24,3,68,2.704,1.335,0,1.062,
copy,bedroom,25,3,23,3.477,2.057,0,1.609,
fan,feature,26,3,29,2.29,1.259,0,2.926,
mill,feast,27,3,46,2.686,1.348,0,1.386,
bias,sirloin,28,3,56,2.245,0.983,0,1.385,
bleach,ruin,29,3,70,3.214,1.1,0,1.352,
climax,saucer,30,3,38,3.677,2.329,0,2.128,
bullet,walkway,31,3,56,2.882,1.35,0,1.341,
remind,foam,32,3,23,2.544,1.152,0,1.128,
process,joker,33,3,55,2.767,1.345,0,1.523,
knock,otter,34,3,28,4.568,2.758,0,1.448,
collect,loyalty,35,3,59,3.331,1.53,0,1.047,
caring,skirt,36,3,32,2.509,1.216,0,1.307,
visit,glove,37,3,31,3.412,2.221,0,1.239,
grip,beach,38,3,59,3.75,1.36,0,1.587,
bacon,feud,39,3,33,2.882,1.537,0,1.311,
capital,figure,40,3,54,2.608,1.268,0,1.718,

