word1,word2,trial,list,jol,jolrt,jolrtfirst,choice,choicert,
fan,feature,1,1,-99,-99,-99,-99,-99,
grip,beach,2,1,-99,-99,-99,-99,-99,
need,faucet,3,1,-99,-99,-99,-99,-99,
pork,emperor,4,1,-99,-99,-99,-99,-99,
smother,surgery,5,1,-99,-99,-99,-99,-99,
caring,skirt,6,1,-99,-99,-99,-99,-99,
process,joker,7,1,-99,-99,-99,-99,-99,
chicken,beet,8,1,-99,-99,-99,-99,-99,
shrink,mafia,9,1,-99,-99,-99,-99,-99,
bullet,walkway,10,1,-99,-99,-99,-99,-99,
knock,otter,11,1,-99,-99,-99,-99,-99,
port,cinema,12,1,-99,-99,-99,-99,-99,
biology,temper,13,1,-99,-99,-99,-99,-99,
bacon,feud,14,1,-99,-99,-99,-99,-99,
visit,glove,15,1,-99,-99,-99,-99,-99,
bleach,ruin,16,1,-99,-99,-99,-99,-99,
banner,glide,17,1,-99,-99,-99,-99,-99,
plant,worm,18,1,-99,-99,-99,-99,-99,
calf,annoy,19,1,-99,-99,-99,-99,-99,
fee,chowder,20,1,-99,-99,-99,-99,-99,
bias,sirloin,21,1,-99,-99,-99,-99,-99,
replace,roach,22,1,-99,-99,-99,-99,-99,
want,ascent,23,1,-99,-99,-99,-99,-99,
copy,bedroom,24,1,-99,-99,-99,-99,-99,
collect,loyalty,25,1,-99,-99,-99,-99,-99,
remind,foam,26,1,-99,-99,-99,-99,-99,
risk,zero,27,1,-99,-99,-99,-99,-99,
climax,saucer,28,1,-99,-99,-99,-99,-99,
forest,knob,29,1,-99,-99,-99,-99,-99,
anger,decay,30,1,-99,-99,-99,-99,-99,
nerve,bumper,31,1,-99,-99,-99,-99,-99,
find,clown,32,1,-99,-99,-99,-99,-99,
prison,loaf,33,1,-99,-99,-99,-99,-99,
pea,bathtub,34,1,-99,-99,-99,-99,-99,
glue,force,35,1,-99,-99,-99,-99,-99,
rock,milk,36,1,-99,-99,-99,-99,-99,
capital,figure,37,1,-99,-99,-99,-99,-99,
link,crisis,38,1,-99,-99,-99,-99,-99,
date,laugh,39,1,-99,-99,-99,-99,-99,
mill,feast,40,1,-99,-99,-99,-99,-99,
capital,figure,1,2,-99,-99,-99,-99,-99,
climax,saucer,2,2,-99,-99,-99,-99,-99,
pork,emperor,3,2,-99,-99,-99,-99,-99,
plant,worm,4,2,-99,-99,-99,-99,-99,
calf,annoy,5,2,-99,-99,-99,-99,-99,
banner,glide,6,2,-99,-99,-99,-99,-99,
shrink,mafia,7,2,-99,-99,-99,-99,-99,
grip,beach,8,2,-99,-99,-99,-99,-99,
rock,milk,9,2,-99,-99,-99,-99,-99,
anger,decay,10,2,-99,-99,-99,-99,-99,
mill,feast,11,2,-99,-99,-99,-99,-99,
forest,knob,12,2,-99,-99,-99,-99,-99,
process,joker,13,2,-99,-99,-99,-99,-99,
glue,force,14,2,-99,-99,-99,-99,-99,
remind,foam,15,2,-99,-99,-99,-99,-99,
bullet,walkway,16,2,-99,-99,-99,-99,-99,
nerve,bumper,17,2,-99,-99,-99,-99,-99,
bacon,feud,18,2,-99,-99,-99,-99,-99,
visit,glove,19,2,-99,-99,-99,-99,-99,
need,faucet,20,2,-99,-99,-99,-99,-99,
biology,temper,21,2,-99,-99,-99,-99,-99,
caring,skirt,22,2,-99,-99,-99,-99,-99,
copy,bedroom,23,2,-99,-99,-99,-99,-99,
bleach,ruin,24,2,-99,-99,-99,-99,-99,
find,clown,25,2,-99,-99,-99,-99,-99,
bias,sirloin,26,2,-99,-99,-99,-99,-99,
fan,feature,27,2,-99,-99,-99,-99,-99,
risk,zero,28,2,-99,-99,-99,-99,-99,
smother,surgery,29,2,-99,-99,-99,-99,-99,
date,laugh,30,2,-99,-99,-99,-99,-99,
want,ascent,31,2,-99,-99,-99,-99,-99,
collect,loyalty,32,2,-99,-99,-99,-99,-99,
chicken,beet,33,2,-99,-99,-99,-99,-99,
pea,bathtub,34,2,-99,-99,-99,-99,-99,
port,cinema,35,2,-99,-99,-99,-99,-99,
link,crisis,36,2,-99,-99,-99,-99,-99,
prison,loaf,37,2,-99,-99,-99,-99,-99,
fee,chowder,38,2,-99,-99,-99,-99,-99,
knock,otter,39,2,-99,-99,-99,-99,-99,
replace,roach,40,2,-99,-99,-99,-99,-99,
link,crisis,1,3,90,8.872,3.408,1,18.393,
bias,sirloin,2,3,94,7.215,3.128,1,3.175,
calf,annoy,3,3,35,10.24,7.88,0,1.8,
process,joker,4,3,19,19.521,17.355,0,1.232,
want,ascent,5,3,84,7.584,4.48,1,1.304,
caring,skirt,6,3,18,7.688,4.793,0,0.96,
smother,surgery,7,3,75,4.896,2.381,0,1.48,
copy,bedroom,8,3,18,7.745,5.737,0,0.992,
mill,feast,9,3,15,12.745,10.95,0,1.68,
collect,loyalty,10,3,15,12.593,10.657,0,0.792,
anger,decay,11,3,20,8.872,7.273,0,0.928,
capital,figure,12,3,86,7.176,3.217,1,1.207,
find,clown,13,3,22,10.937,8.563,0,1.121,
knock,otter,14,3,14,6.184,4.625,0,1.216,
fan,feature,15,3,84,7.552,4.888,1,0.831,
prison,loaf,16,3,97,3.776,1.632,1,1.064,
pea,bathtub,17,3,91,8.264,2.856,1,1.104,
visit,glove,18,3,18,7.736,5.8,0,1.103,
plant,worm,19,3,3,9.48,7.092,0,0.999,
need,faucet,20,3,10,7.824,5.962,0,1.079,
pork,emperor,21,3,92,8.833,5.89,1,1.464,
fee,chowder,22,3,83,10.928,8.753,1,0.977,
risk,zero,23,3,14,6.28,4.423,0,0.911,
shrink,mafia,24,3,12,7.793,5.849,0,0.863,
chicken,beet,25,3,89,4.536,2.032,1,0.984,
rock,milk,26,3,21,10.505,8.482,0,0.831,
banner,glide,27,3,16,7.168,5.73,0,0.888,
replace,roach,28,3,17,8.24,6.464,0,1.016,
remind,foam,29,3,27,11.033,9.53,0,1.216,
grip,beach,30,3,23,5.991,4.832,0,0.999,
bacon,feud,31,3,89,4.808,2.329,1,1.448,
bullet,walkway,32,3,87,4.313,1.528,1,0.959,
date,laugh,33,3,69,12.465,10.53,1,0.855,
biology,temper,34,3,62,9.433,7.818,1,0.863,
nerve,bumper,35,3,26,10.001,8.361,1,0.928,
bleach,ruin,36,3,86,7.08,3.679,1,1.135,
forest,knob,37,3,26,4.479,2.799,1,0.896,
port,cinema,38,3,20,7.032,5.703,1,0.824,
glue,force,39,3,21,3.728,2.2,1,0.776,
climax,saucer,40,3,16,8.633,6.289,1,0.889,

