word1,word2,trial,list,jol,jolrt,jolrtfirst,choice,choicert,
bleach,ruin,1,1,-99,-99,-99,-99,-99,
port,cinema,2,1,-99,-99,-99,-99,-99,
chicken,beet,3,1,-99,-99,-99,-99,-99,
remind,foam,4,1,-99,-99,-99,-99,-99,
banner,glide,5,1,-99,-99,-99,-99,-99,
bacon,feud,6,1,-99,-99,-99,-99,-99,
link,crisis,7,1,-99,-99,-99,-99,-99,
climax,saucer,8,1,-99,-99,-99,-99,-99,
bullet,walkway,9,1,-99,-99,-99,-99,-99,
biology,temper,10,1,-99,-99,-99,-99,-99,
replace,roach,11,1,-99,-99,-99,-99,-99,
anger,decay,12,1,-99,-99,-99,-99,-99,
calf,annoy,13,1,-99,-99,-99,-99,-99,
nerve,bumper,14,1,-99,-99,-99,-99,-99,
pea,bathtub,15,1,-99,-99,-99,-99,-99,
knock,otter,16,1,-99,-99,-99,-99,-99,
forest,knob,17,1,-99,-99,-99,-99,-99,
risk,zero,18,1,-99,-99,-99,-99,-99,
grip,beach,19,1,-99,-99,-99,-99,-99,
glue,force,20,1,-99,-99,-99,-99,-99,
capital,figure,21,1,-99,-99,-99,-99,-99,
prison,loaf,22,1,-99,-99,-99,-99,-99,
date,laugh,23,1,-99,-99,-99,-99,-99,
smother,surgery,24,1,-99,-99,-99,-99,-99,
rock,milk,25,1,-99,-99,-99,-99,-99,
need,faucet,26,1,-99,-99,-99,-99,-99,
shrink,mafia,27,1,-99,-99,-99,-99,-99,
pork,emperor,28,1,-99,-99,-99,-99,-99,
fee,chowder,29,1,-99,-99,-99,-99,-99,
collect,loyalty,30,1,-99,-99,-99,-99,-99,
copy,bedroom,31,1,-99,-99,-99,-99,-99,
process,joker,32,1,-99,-99,-99,-99,-99,
fan,feature,33,1,-99,-99,-99,-99,-99,
visit,glove,34,1,-99,-99,-99,-99,-99,
mill,feast,35,1,-99,-99,-99,-99,-99,
plant,worm,36,1,-99,-99,-99,-99,-99,
caring,skirt,37,1,-99,-99,-99,-99,-99,
want,ascent,38,1,-99,-99,-99,-99,-99,
find,clown,39,1,-99,-99,-99,-99,-99,
bias,sirloin,40,1,-99,-99,-99,-99,-99,
date,laugh,1,2,-99,-99,-99,-99,-99,
forest,knob,2,2,-99,-99,-99,-99,-99,
anger,decay,3,2,-99,-99,-99,-99,-99,
knock,otter,4,2,-99,-99,-99,-99,-99,
bacon,feud,5,2,-99,-99,-99,-99,-99,
rock,milk,6,2,-99,-99,-99,-99,-99,
glue,force,7,2,-99,-99,-99,-99,-99,
shrink,mafia,8,2,-99,-99,-99,-99,-99,
fan,feature,9,2,-99,-99,-99,-99,-99,
collect,loyalty,10,2,-99,-99,-99,-99,-99,
chicken,beet,11,2,-99,-99,-99,-99,-99,
copy,bedroom,12,2,-99,-99,-99,-99,-99,
calf,annoy,13,2,-99,-99,-99,-99,-99,
fee,chowder,14,2,-99,-99,-99,-99,-99,
link,crisis,15,2,-99,-99,-99,-99,-99,
replace,roach,16,2,-99,-99,-99,-99,-99,
need,faucet,17,2,-99,-99,-99,-99,-99,
bleach,ruin,18,2,-99,-99,-99,-99,-99,
caring,skirt,19,2,-99,-99,-99,-99,-99,
bullet,walkway,20,2,-99,-99,-99,-99,-99,
risk,zero,21,2,-99,-99,-99,-99,-99,
grip,beach,22,2,-99,-99,-99,-99,-99,
port,cinema,23,2,-99,-99,-99,-99,-99,
climax,saucer,24,2,-99,-99,-99,-99,-99,
pork,emperor,25,2,-99,-99,-99,-99,-99,
biology,temper,26,2,-99,-99,-99,-99,-99,
bias,sirloin,27,2,-99,-99,-99,-99,-99,
smother,surgery,28,2,-99,-99,-99,-99,-99,
visit,glove,29,2,-99,-99,-99,-99,-99,
find,clown,30,2,-99,-99,-99,-99,-99,
mill,feast,31,2,-99,-99,-99,-99,-99,
prison,loaf,32,2,-99,-99,-99,-99,-99,
plant,worm,33,2,-99,-99,-99,-99,-99,
banner,glide,34,2,-99,-99,-99,-99,-99,
process,joker,35,2,-99,-99,-99,-99,-99,
capital,figure,36,2,-99,-99,-99,-99,-99,
nerve,bumper,37,2,-99,-99,-99,-99,-99,
want,ascent,38,2,-99,-99,-99,-99,-99,
remind,foam,39,2,-99,-99,-99,-99,-99,
pea,bathtub,40,2,-99,-99,-99,-99,-99,
pork,emperor,1,3,55,17.865,12.807,0,23.487,
biology,temper,2,3,76,11.429,7.911,1,6.12,
fan,feature,3,3,43,8.64,5.231,0,2.515,
bacon,feud,4,3,62,11.517,3.293,0,2.054,
banner,glide,5,3,66,6.976,2.803,1,1.68,
process,joker,6,3,26,8.037,5.139,0,1.227,
copy,bedroom,7,3,22,7.242,2.265,0,1.158,
collect,loyalty,8,3,30,4.975,2.437,0,1.166,
pea,bathtub,9,3,92,4.469,1.315,1,1.611,
plant,worm,10,3,70,5.815,3.7,0,1.836,
smother,surgery,11,3,82,5.499,2.461,1,1.109,
visit,glove,12,3,30,3.844,2.263,0,1.406,
capital,figure,13,3,53,5.987,2.92,0,1.523,
bullet,walkway,14,3,77,5.739,2.422,1,1.246,
replace,roach,15,3,40,5.916,3.162,0,0.714,
knock,otter,16,3,44,12.957,1.908,0,0.825,
glue,force,17,3,70,3.926,1.876,1,1.795,
chicken,beet,18,3,81,6.086,3.206,1,0.746,
fee,chowder,19,3,36,5.534,3.018,0,1.081,
prison,loaf,20,3,65,7.355,2.006,1,0.909,
need,faucet,21,3,22,3.721,1.627,0,1.236,
find,clown,22,3,32,4.132,2.163,0,1.143,
calf,annoy,23,3,63,7.351,5.357,0,1.275,
grip,beach,24,3,26,7.227,4.181,0,1.305,
bias,sirloin,25,3,30,8.229,6.081,0,1.049,
forest,knob,26,3,95,4.443,2.046,1,1.898,
bleach,ruin,27,3,85,10.231,8.237,1,1.643,
climax,saucer,28,3,34,7.044,4.671,0,2.124,
risk,zero,29,3,28,5.867,2.856,0,1.354,
anger,decay,30,3,22,3.182,1.944,0,1.011,
shrink,mafia,31,3,28,6.187,2.483,1,2.046,
mill,feast,32,3,32,2.831,1.558,1,1.137,
rock,milk,33,3,60,3.307,1.916,1,1.322,
caring,skirt,34,3,33,6.656,1.821,1,1.307,
remind,foam,35,3,30,4.196,1.645,1,1.345,
nerve,bumper,36,3,20,4.982,1.504,1,1.119,
link,crisis,37,3,28,2.591,1.391,1,1.002,
want,ascent,38,3,22,2.505,1.391,1,2.153,
date,laugh,39,3,61,5.011,3.914,1,1.097,
port,cinema,40,3,44,6.305,4.997,1,1.213,

