word1,word2,trial,list,jol,jolrt,jolrtfirst,choice,choicert,
mill,feast,1,1,-99,-99,-99,-99,-99,
fan,feature,2,1,-99,-99,-99,-99,-99,
plant,worm,3,1,-99,-99,-99,-99,-99,
find,clown,4,1,-99,-99,-99,-99,-99,
forest,knob,5,1,-99,-99,-99,-99,-99,
nerve,bumper,6,1,-99,-99,-99,-99,-99,
pea,bathtub,7,1,-99,-99,-99,-99,-99,
chicken,beet,8,1,-99,-99,-99,-99,-99,
biology,temper,9,1,-99,-99,-99,-99,-99,
knock,otter,10,1,-99,-99,-99,-99,-99,
smother,surgery,11,1,-99,-99,-99,-99,-99,
remind,foam,12,1,-99,-99,-99,-99,-99,
calf,annoy,13,1,-99,-99,-99,-99,-99,
collect,loyalty,14,1,-99,-99,-99,-99,-99,
capital,figure,15,1,-99,-99,-99,-99,-99,
bias,sirloin,16,1,-99,-99,-99,-99,-99,
shrink,mafia,17,1,-99,-99,-99,-99,-99,
need,faucet,18,1,-99,-99,-99,-99,-99,
process,joker,19,1,-99,-99,-99,-99,-99,
date,laugh,20,1,-99,-99,-99,-99,-99,
visit,glove,21,1,-99,-99,-99,-99,-99,
prison,loaf,22,1,-99,-99,-99,-99,-99,
bacon,feud,23,1,-99,-99,-99,-99,-99,
risk,zero,24,1,-99,-99,-99,-99,-99,
bullet,walkway,25,1,-99,-99,-99,-99,-99,
caring,skirt,26,1,-99,-99,-99,-99,-99,
pork,emperor,27,1,-99,-99,-99,-99,-99,
copy,bedroom,28,1,-99,-99,-99,-99,-99,
climax,saucer,29,1,-99,-99,-99,-99,-99,
port,cinema,30,1,-99,-99,-99,-99,-99,
fee,chowder,31,1,-99,-99,-99,-99,-99,
banner,glide,32,1,-99,-99,-99,-99,-99,
bleach,ruin,33,1,-99,-99,-99,-99,-99,
glue,force,34,1,-99,-99,-99,-99,-99,
grip,beach,35,1,-99,-99,-99,-99,-99,
rock,milk,36,1,-99,-99,-99,-99,-99,
want,ascent,37,1,-99,-99,-99,-99,-99,
link,crisis,38,1,-99,-99,-99,-99,-99,
replace,roach,39,1,-99,-99,-99,-99,-99,
anger,decay,40,1,-99,-99,-99,-99,-99,
climax,saucer,1,2,-99,-99,-99,-99,-99,
nerve,bumper,2,2,-99,-99,-99,-99,-99,
calf,annoy,3,2,-99,-99,-99,-99,-99,
collect,loyalty,4,2,-99,-99,-99,-99,-99,
bleach,ruin,5,2,-99,-99,-99,-99,-99,
capital,figure,6,2,-99,-99,-99,-99,-99,
risk,zero,7,2,-99,-99,-99,-99,-99,
rock,milk,8,2,-99,-99,-99,-99,-99,
grip,beach,9,2,-99,-99,-99,-99,-99,
prison,loaf,10,2,-99,-99,-99,-99,-99,
process,joker,11,2,-99,-99,-99,-99,-99,
fan,feature,12,2,-99,-99,-99,-99,-99,
bacon,feud,13,2,-99,-99,-99,-99,-99,
shrink,mafia,14,2,-99,-99,-99,-99,-99,
replace,roach,15,2,-99,-99,-99,-99,-99,
want,ascent,16,2,-99,-99,-99,-99,-99,
date,laugh,17,2,-99,-99,-99,-99,-99,
link,crisis,18,2,-99,-99,-99,-99,-99,
bullet,walkway,19,2,-99,-99,-99,-99,-99,
glue,force,20,2,-99,-99,-99,-99,-99,
chicken,beet,21,2,-99,-99,-99,-99,-99,
forest,knob,22,2,-99,-99,-99,-99,-99,
find,clown,23,2,-99,-99,-99,-99,-99,
need,faucet,24,2,-99,-99,-99,-99,-99,
remind,foam,25,2,-99,-99,-99,-99,-99,
knock,otter,26,2,-99,-99,-99,-99,-99,
plant,worm,27,2,-99,-99,-99,-99,-99,
pea,bathtub,28,2,-99,-99,-99,-99,-99,
visit,glove,29,2,-99,-99,-99,-99,-99,
bias,sirloin,30,2,-99,-99,-99,-99,-99,
copy,bedroom,31,2,-99,-99,-99,-99,-99,
mill,feast,32,2,-99,-99,-99,-99,-99,
biology,temper,33,2,-99,-99,-99,-99,-99,
port,cinema,34,2,-99,-99,-99,-99,-99,
smother,surgery,35,2,-99,-99,-99,-99,-99,
caring,skirt,36,2,-99,-99,-99,-99,-99,
fee,chowder,37,2,-99,-99,-99,-99,-99,
pork,emperor,38,2,-99,-99,-99,-99,-99,
banner,glide,39,2,-99,-99,-99,-99,-99,
anger,decay,40,2,-99,-99,-99,-99,-99,
shrink,mafia,1,3,2,5.294,2.268,0,7.395,
pea,bathtub,2,3,28,8.851,4.48,0,2.216,
process,joker,3,3,24,4.067,2.788,0,0.941,
fee,chowder,4,3,24,4.22,2.508,0,0.621,
glue,force,5,3,100,4.636,2.025,1,0.708,
calf,annoy,6,3,37,8.043,4.525,0,0.594,
mill,feast,7,3,22,4.403,3.202,0,1.001,
replace,roach,8,3,26,4.914,2.093,0,1.043,
chicken,beet,9,3,20,3.431,2.372,0,0.619,
want,ascent,10,3,20,2.979,1.26,0,0.625,
biology,temper,11,3,8,2.376,1.218,0,0.886,
collect,loyalty,12,3,19,5.278,4.198,0,1.406,
need,faucet,13,3,36,3.437,2.44,0,0.888,
remind,foam,14,3,22,3.965,1.248,0,1.102,
anger,decay,15,3,100,3.899,2.866,1,0.954,
rock,milk,16,3,79,6.297,2.444,1,0.787,
knock,otter,17,3,21,4.013,2.915,0,0.731,
visit,glove,18,3,26,5.745,4.918,0,1.223,
bias,sirloin,19,3,21,3.265,2.483,0,2.191,
grip,beach,20,3,75,2.771,1.977,1,2.495,
bullet,walkway,21,3,34,3.525,1.531,0,1.25,
prison,loaf,22,3,38,4.324,3.32,0,0.756,
capital,figure,23,3,30,3.695,2.899,0,1.2,
forest,knob,24,3,24,3.803,3.005,0,1.771,
smother,surgery,25,3,1,2.493,1.088,1,1.28,
link,crisis,26,3,84,3.847,1.645,1,0.645,
find,clown,27,3,34,3.624,1.228,1,1.198,
fan,feature,28,3,36,3.487,1.175,1,0.782,
pork,emperor,29,3,46,4.595,0.909,1,1.103,
port,cinema,30,3,100,2.65,1.261,1,0.774,
banner,glide,31,3,78,2.21,0.853,1,0.465,
plant,worm,32,3,38,3.44,0.989,1,1.136,
bleach,ruin,33,3,22,4.788,2.487,1,0.55,
copy,bedroom,34,3,79,3.752,1.547,1,0.787,
caring,skirt,35,3,30,2.973,0.98,1,0.679,
climax,saucer,36,3,80,2.594,1,1,1.033,
bacon,feud,37,3,35,4.134,1.872,1,2.135,
nerve,bumper,38,3,35,1.936,0.964,1,0.742,
date,laugh,39,3,33,4.318,0.627,1,0.85,
risk,zero,40,3,67,3.186,0.972,1,3.182,

