word1,word2,trial,list,jol,jolrt,jolrtfirst,choice,choicert,
calf,annoy,1,1,-99,-99,-99,-99,-99,
risk,zero,2,1,-99,-99,-99,-99,-99,
fee,chowder,3,1,-99,-99,-99,-99,-99,
date,laugh,4,1,-99,-99,-99,-99,-99,
mill,feast,5,1,-99,-99,-99,-99,-99,
port,cinema,6,1,-99,-99,-99,-99,-99,
prison,loaf,7,1,-99,-99,-99,-99,-99,
plant,worm,8,1,-99,-99,-99,-99,-99,
need,faucet,9,1,-99,-99,-99,-99,-99,
link,crisis,10,1,-99,-99,-99,-99,-99,
copy,bedroom,11,1,-99,-99,-99,-99,-99,
bleach,ruin,12,1,-99,-99,-99,-99,-99,
forest,knob,13,1,-99,-99,-99,-99,-99,
knock,otter,14,1,-99,-99,-99,-99,-99,
pea,bathtub,15,1,-99,-99,-99,-99,-99,
process,joker,16,1,-99,-99,-99,-99,-99,
replace,roach,17,1,-99,-99,-99,-99,-99,
chicken,beet,18,1,-99,-99,-99,-99,-99,
climax,saucer,19,1,-99,-99,-99,-99,-99,
rock,milk,20,1,-99,-99,-99,-99,-99,
bias,sirloin,21,1,-99,-99,-99,-99,-99,
pork,emperor,22,1,-99,-99,-99,-99,-99,
grip,beach,23,1,-99,-99,-99,-99,-99,
shrink,mafia,24,1,-99,-99,-99,-99,-99,
biology,temper,25,1,-99,-99,-99,-99,-99,
glue,force,26,1,-99,-99,-99,-99,-99,
fan,feature,27,1,-99,-99,-99,-99,-99,
capital,figure,28,1,-99,-99,-99,-99,-99,
bullet,walkway,29,1,-99,-99,-99,-99,-99,
banner,glide,30,1,-99,-99,-99,-99,-99,
visit,glove,31,1,-99,-99,-99,-99,-99,
anger,decay,32,1,-99,-99,-99,-99,-99,
find,clown,33,1,-99,-99,-99,-99,-99,
bacon,feud,34,1,-99,-99,-99,-99,-99,
remind,foam,35,1,-99,-99,-99,-99,-99,
smother,surgery,36,1,-99,-99,-99,-99,-99,
nerve,bumper,37,1,-99,-99,-99,-99,-99,
collect,loyalty,38,1,-99,-99,-99,-99,-99,
caring,skirt,39,1,-99,-99,-99,-99,-99,
want,ascent,40,1,-99,-99,-99,-99,-99,
grip,beach,1,2,-99,-99,-99,-99,-99,
bleach,ruin,2,2,-99,-99,-99,-99,-99,
calf,annoy,3,2,-99,-99,-99,-99,-99,
fan,feature,4,2,-99,-99,-99,-99,-99,
date,laugh,5,2,-99,-99,-99,-99,-99,
bias,sirloin,6,2,-99,-99,-99,-99,-99,
capital,figure,7,2,-99,-99,-99,-99,-99,
plant,worm,8,2,-99,-99,-99,-99,-99,
link,crisis,9,2,-99,-99,-99,-99,-99,
collect,loyalty,10,2,-99,-99,-99,-99,-99,
smother,surgery,11,2,-99,-99,-99,-99,-99,
bullet,walkway,12,2,-99,-99,-99,-99,-99,
prison,loaf,13,2,-99,-99,-99,-99,-99,
need,faucet,14,2,-99,-99,-99,-99,-99,
pea,bathtub,15,2,-99,-99,-99,-99,-99,
forest,knob,16,2,-99,-99,-99,-99,-99,
bacon,feud,17,2,-99,-99,-99,-99,-99,
copy,bedroom,18,2,-99,-99,-99,-99,-99,
find,clown,19,2,-99,-99,-99,-99,-99,
biology,temper,20,2,-99,-99,-99,-99,-99,
risk,zero,21,2,-99,-99,-99,-99,-99,
knock,otter,22,2,-99,-99,-99,-99,-99,
remind,foam,23,2,-99,-99,-99,-99,-99,
fee,chowder,24,2,-99,-99,-99,-99,-99,
want,ascent,25,2,-99,-99,-99,-99,-99,
visit,glove,26,2,-99,-99,-99,-99,-99,
rock,milk,27,2,-99,-99,-99,-99,-99,
mill,feast,28,2,-99,-99,-99,-99,-99,
port,cinema,29,2,-99,-99,-99,-99,-99,
shrink,mafia,30,2,-99,-99,-99,-99,-99,
anger,decay,31,2,-99,-99,-99,-99,-99,
replace,roach,32,2,-99,-99,-99,-99,-99,
caring,skirt,33,2,-99,-99,-99,-99,-99,
banner,glide,34,2,-99,-99,-99,-99,-99,
nerve,bumper,35,2,-99,-99,-99,-99,-99,
pork,emperor,36,2,-99,-99,-99,-99,-99,
glue,force,37,2,-99,-99,-99,-99,-99,
process,joker,38,2,-99,-99,-99,-99,-99,
chicken,beet,39,2,-99,-99,-99,-99,-99,
climax,saucer,40,2,-99,-99,-99,-99,-99,
shrink,mafia,1,3,10,14.027,10.031,0,8.656,
port,cinema,2,3,10,14.224,10.727,0,7.468,
caring,skirt,3,3,20,11.139,8.005,0,4.672,
pea,bathtub,4,3,90,5.05,1.654,1,0.893,
knock,otter,5,3,95,3.765,1.554,1,2.919,
bullet,walkway,6,3,90,4.043,1.548,1,0.81,
fee,chowder,7,3,10,6.16,1.468,0,0.78,
chicken,beet,8,3,85,3.461,1.644,1,0.783,
glue,force,9,3,95,3.79,1.101,1,0.69,
visit,glove,10,3,20,5.025,1.581,0,0.772,
calf,annoy,11,3,95,4.228,1.152,1,0.734,
replace,roach,12,3,10,5.252,1.993,0,0.718,
collect,loyalty,13,3,90,3.823,1.357,1,0.738,
date,laugh,14,3,95,5.339,1.852,1,1.733,
process,joker,15,3,10,5.415,2.266,0,0.587,
bias,sirloin,16,3,5,3.79,1.63,0,0.74,
mill,feast,17,3,5,7.493,1.608,0,2.793,
find,clown,18,3,60,6.432,4.085,1,0.713,
fan,feature,19,3,20,20.864,1.599,0,0.957,
prison,loaf,20,3,90,3.63,1.359,1,0.715,
anger,decay,21,3,65,5.891,3.403,1,0.637,
copy,bedroom,22,3,10,3.266,1.269,0,0.658,
pork,emperor,23,3,20,6.159,3.444,0,0.63,
grip,beach,24,3,90,4.311,1.122,1,0.686,
banner,glide,25,3,10,2.675,1.149,0,0.715,
biology,temper,26,3,15,3.206,1.203,0,0.622,
want,ascent,27,3,85,4.074,1.435,1,0.611,
need,faucet,28,3,15,8.565,4.389,0,0.721,
plant,worm,29,3,95,6.367,1.493,1,0.594,
forest,knob,30,3,25,10.339,8.431,0,3.059,
link,crisis,31,3,10,6.168,2.399,0,0.557,
bacon,feud,32,3,70,7.123,3.328,1,0.999,
rock,milk,33,3,30,4.028,1.426,0,0.757,
bleach,ruin,34,3,95,3.714,1.09,1,0.78,
risk,zero,35,3,25,4.913,1.533,0,0.616,
nerve,bumper,36,3,10,3.737,1.117,0,0.547,
remind,foam,37,3,30,5.176,1.868,1,0.736,
smother,surgery,38,3,85,5.278,1.51,1,1.089,
capital,figure,39,3,15,3.404,1.206,1,0.559,
climax,saucer,40,3,10,5.034,1.389,1,0.767,

