word1,word2,trial,list,jol,jolrt,jolrtfirst,choice,choicert,
collect,loyalty,1,1,-99,-99,-99,-99,-99,
want,ascent,2,1,-99,-99,-99,-99,-99,
process,joker,3,1,-99,-99,-99,-99,-99,
pork,emperor,4,1,-99,-99,-99,-99,-99,
plant,worm,5,1,-99,-99,-99,-99,-99,
banner,glide,6,1,-99,-99,-99,-99,-99,
mill,feast,7,1,-99,-99,-99,-99,-99,
risk,zero,8,1,-99,-99,-99,-99,-99,
copy,bedroom,9,1,-99,-99,-99,-99,-99,
knock,otter,10,1,-99,-99,-99,-99,-99,
calf,annoy,11,1,-99,-99,-99,-99,-99,
link,crisis,12,1,-99,-99,-99,-99,-99,
bleach,ruin,13,1,-99,-99,-99,-99,-99,
need,faucet,14,1,-99,-99,-99,-99,-99,
biology,temper,15,1,-99,-99,-99,-99,-99,
fee,chowder,16,1,-99,-99,-99,-99,-99,
bullet,walkway,17,1,-99,-99,-99,-99,-99,
fan,feature,18,1,-99,-99,-99,-99,-99,
glue,force,19,1,-99,-99,-99,-99,-99,
pea,bathtub,20,1,-99,-99,-99,-99,-99,
bias,sirloin,21,1,-99,-99,-99,-99,-99,
find,clown,22,1,-99,-99,-99,-99,-99,
replace,roach,23,1,-99,-99,-99,-99,-99,
remind,foam,24,1,-99,-99,-99,-99,-99,
chicken,beet,25,1,-99,-99,-99,-99,-99,
forest,knob,26,1,-99,-99,-99,-99,-99,
smother,surgery,27,1,-99,-99,-99,-99,-99,
visit,glove,28,1,-99,-99,-99,-99,-99,
date,laugh,29,1,-99,-99,-99,-99,-99,
anger,decay,30,1,-99,-99,-99,-99,-99,
prison,loaf,31,1,-99,-99,-99,-99,-99,
nerve,bumper,32,1,-99,-99,-99,-99,-99,
capital,figure,33,1,-99,-99,-99,-99,-99,
grip,beach,34,1,-99,-99,-99,-99,-99,
rock,milk,35,1,-99,-99,-99,-99,-99,
bacon,feud,36,1,-99,-99,-99,-99,-99,
caring,skirt,37,1,-99,-99,-99,-99,-99,
climax,saucer,38,1,-99,-99,-99,-99,-99,
port,cinema,39,1,-99,-99,-99,-99,-99,
shrink,mafia,40,1,-99,-99,-99,-99,-99,
fee,chowder,1,2,-99,-99,-99,-99,-99,
bias,sirloin,2,2,-99,-99,-99,-99,-99,
forest,knob,3,2,-99,-99,-99,-99,-99,
visit,glove,4,2,-99,-99,-99,-99,-99,
process,joker,5,2,-99,-99,-99,-99,-99,
nerve,bumper,6,2,-99,-99,-99,-99,-99,
calf,annoy,7,2,-99,-99,-99,-99,-99,
banner,glide,8,2,-99,-99,-99,-99,-99,
bullet,walkway,9,2,-99,-99,-99,-99,-99,
find,clown,10,2,-99,-99,-99,-99,-99,
mill,feast,11,2,-99,-99,-99,-99,-99,
replace,roach,12,2,-99,-99,-99,-99,-99,
want,ascent,13,2,-99,-99,-99,-99,-99,
capital,figure,14,2,-99,-99,-99,-99,-99,
port,cinema,15,2,-99,-99,-99,-99,-99,
climax,saucer,16,2,-99,-99,-99,-99,-99,
bleach,ruin,17,2,-99,-99,-99,-99,-99,
pork,emperor,18,2,-99,-99,-99,-99,-99,
plant,worm,19,2,-99,-99,-99,-99,-99,
remind,foam,20,2,-99,-99,-99,-99,-99,
biology,temper,21,2,-99,-99,-99,-99,-99,
chicken,beet,22,2,-99,-99,-99,-99,-99,
copy,bedroom,23,2,-99,-99,-99,-99,-99,
knock,otter,24,2,-99,-99,-99,-99,-99,
grip,beach,25,2,-99,-99,-99,-99,-99,
fan,feature,26,2,-99,-99,-99,-99,-99,
glue,force,27,2,-99,-99,-99,-99,-99,
prison,loaf,28,2,-99,-99,-99,-99,-99,
pea,bathtub,29,2,-99,-99,-99,-99,-99,
anger,decay,30,2,-99,-99,-99,-99,-99,
bacon,feud,31,2,-99,-99,-99,-99,-99,
date,laugh,32,2,-99,-99,-99,-99,-99,
rock,milk,33,2,-99,-99,-99,-99,-99,
risk,zero,34,2,-99,-99,-99,-99,-99,
caring,skirt,35,2,-99,-99,-99,-99,-99,
shrink,mafia,36,2,-99,-99,-99,-99,-99,
collect,loyalty,37,2,-99,-99,-99,-99,-99,
smother,surgery,38,2,-99,-99,-99,-99,-99,
need,faucet,39,2,-99,-99,-99,-99,-99,
link,crisis,40,2,-99,-99,-99,-99,-99,
find,clown,1,3,65,7.774,3.214,1,4.463,
nerve,bumper,2,3,82,3.845,2.11,1,2.976,
plant,worm,3,3,71,5.52,2.352,1,6.376,
process,joker,4,3,80,4.279,1.056,1,1.175,
need,faucet,5,3,90,2.879,0.92,1,1.391,
climax,saucer,6,3,88,2.815,1.168,1,0.911,
knock,otter,7,3,81,4.935,1.064,1,0.944,
date,laugh,8,3,83,8,0.68,1,1.977,
link,crisis,9,3,88,4.014,1.11,1,1.328,
bias,sirloin,10,3,88,2.887,1.023,1,1.752,
copy,bedroom,11,3,90,4.239,1.247,1,4.008,
biology,temper,12,3,92,8.079,1.967,1,1.872,
fan,feature,13,3,91,8.544,1.136,1,5.11,
anger,decay,14,3,85,3.975,1.239,1,0.856,
capital,figure,15,3,89,2.439,0.975,1,6.663,
collect,loyalty,16,3,89,4.392,0.944,1,1.102,
visit,glove,17,3,93,2.375,0.864,1,1.191,
grip,beach,18,3,92,3.079,0.976,1,0.791,
risk,zero,19,3,94,2.575,0.784,1,1.279,
calf,annoy,20,3,93,2.703,0.968,1,0.912,
chicken,beet,21,3,93,3.799,0.856,0,36.959,
want,ascent,22,3,88,4.615,2.471,0,5.136,
bullet,walkway,23,3,67,4.455,1.223,0,1.04,
bleach,ruin,24,3,83,3.72,0.928,0,1.414,
caring,skirt,25,3,84,6.28,1.224,0,9.592,
remind,foam,26,3,87,4.008,1.312,0,0.976,
glue,force,27,3,89,14.752,1.091,0,1.319,
pea,bathtub,28,3,38,5.431,1.552,0,1.024,
fee,chowder,29,3,77,2.334,1.055,0,1.176,
rock,milk,30,3,73,9.743,6.328,0,0.919,
shrink,mafia,31,3,80,4.504,1.464,0,3.294,
smother,surgery,32,3,82,3.119,1.2,0,0.767,
banner,glide,33,3,90,2.399,0.904,0,1.047,
prison,loaf,34,3,82,2.239,0.896,0,0.792,
replace,roach,35,3,89,3.055,1.16,0,1.023,
pork,emperor,36,3,88,5.263,1.048,0,0.791,
port,cinema,37,3,88,5.279,1.176,0,0.943,
mill,feast,38,3,89,2.815,1.026,0,0.871,
forest,knob,39,3,89,5.207,0.784,0,1.031,
bacon,feud,40,3,91,3.344,1.08,0,0.982,

