word1,word2,trial,list,jol,jolrt,jolrtfirst,choice,choicert,
link,crisis,1,1,-99,-99,-99,-99,-99,
climax,saucer,2,1,-99,-99,-99,-99,-99,
collect,loyalty,3,1,-99,-99,-99,-99,-99,
risk,zero,4,1,-99,-99,-99,-99,-99,
port,cinema,5,1,-99,-99,-99,-99,-99,
biology,temper,6,1,-99,-99,-99,-99,-99,
mill,feast,7,1,-99,-99,-99,-99,-99,
prison,loaf,8,1,-99,-99,-99,-99,-99,
grip,beach,9,1,-99,-99,-99,-99,-99,
replace,roach,10,1,-99,-99,-99,-99,-99,
plant,worm,11,1,-99,-99,-99,-99,-99,
fee,chowder,12,1,-99,-99,-99,-99,-99,
pork,emperor,13,1,-99,-99,-99,-99,-99,
anger,decay,14,1,-99,-99,-99,-99,-99,
smother,surgery,15,1,-99,-99,-99,-99,-99,
want,ascent,16,1,-99,-99,-99,-99,-99,
forest,knob,17,1,-99,-99,-99,-99,-99,
visit,glove,18,1,-99,-99,-99,-99,-99,
need,faucet,19,1,-99,-99,-99,-99,-99,
copy,bedroom,20,1,-99,-99,-99,-99,-99,
capital,figure,21,1,-99,-99,-99,-99,-99,
calf,annoy,22,1,-99,-99,-99,-99,-99,
chicken,beet,23,1,-99,-99,-99,-99,-99,
bleach,ruin,24,1,-99,-99,-99,-99,-99,
caring,skirt,25,1,-99,-99,-99,-99,-99,
shrink,mafia,26,1,-99,-99,-99,-99,-99,
knock,otter,27,1,-99,-99,-99,-99,-99,
bacon,feud,28,1,-99,-99,-99,-99,-99,
pea,bathtub,29,1,-99,-99,-99,-99,-99,
find,clown,30,1,-99,-99,-99,-99,-99,
fan,feature,31,1,-99,-99,-99,-99,-99,
rock,milk,32,1,-99,-99,-99,-99,-99,
remind,foam,33,1,-99,-99,-99,-99,-99,
date,laugh,34,1,-99,-99,-99,-99,-99,
process,joker,35,1,-99,-99,-99,-99,-99,
nerve,bumper,36,1,-99,-99,-99,-99,-99,
banner,glide,37,1,-99,-99,-99,-99,-99,
bias,sirloin,38,1,-99,-99,-99,-99,-99,
glue,force,39,1,-99,-99,-99,-99,-99,
bullet,walkway,40,1,-99,-99,-99,-99,-99,
mill,feast,1,2,-99,-99,-99,-99,-99,
pea,bathtub,2,2,-99,-99,-99,-99,-99,
process,joker,3,2,-99,-99,-99,-99,-99,
smother,surgery,4,2,-99,-99,-99,-99,-99,
caring,skirt,5,2,-99,-99,-99,-99,-99,
capital,figure,6,2,-99,-99,-99,-99,-99,
pork,emperor,7,2,-99,-99,-99,-99,-99,
anger,decay,8,2,-99,-99,-99,-99,-99,
calf,annoy,9,2,-99,-99,-99,-99,-99,
find,clown,10,2,-99,-99,-99,-99,-99,
need,faucet,11,2,-99,-99,-99,-99,-99,
bullet,walkway,12,2,-99,-99,-99,-99,-99,
nerve,bumper,13,2,-99,-99,-99,-99,-99,
fan,feature,14,2,-99,-99,-99,-99,-99,
chicken,beet,15,2,-99,-99,-99,-99,-99,
copy,bedroom,16,2,-99,-99,-99,-99,-99,
grip,beach,17,2,-99,-99,-99,-99,-99,
shrink,mafia,18,2,-99,-99,-99,-99,-99,
visit,glove,19,2,-99,-99,-99,-99,-99,
collect,loyalty,20,2,-99,-99,-99,-99,-99,
risk,zero,21,2,-99,-99,-99,-99,-99,
want,ascent,22,2,-99,-99,-99,-99,-99,
replace,roach,23,2,-99,-99,-99,-99,-99,
bias,sirloin,24,2,-99,-99,-99,-99,-99,
bacon,feud,25,2,-99,-99,-99,-99,-99,
rock,milk,26,2,-99,-99,-99,-99,-99,
port,cinema,27,2,-99,-99,-99,-99,-99,
forest,knob,28,2,-99,-99,-99,-99,-99,
glue,force,29,2,-99,-99,-99,-99,-99,
prison,loaf,30,2,-99,-99,-99,-99,-99,
plant,worm,31,2,-99,-99,-99,-99,-99,
knock,otter,32,2,-99,-99,-99,-99,-99,
fee,chowder,33,2,-99,-99,-99,-99,-99,
link,crisis,34,2,-99,-99,-99,-99,-99,
date,laugh,35,2,-99,-99,-99,-99,-99,
climax,saucer,36,2,-99,-99,-99,-99,-99,
bleach,ruin,37,2,-99,-99,-99,-99,-99,
banner,glide,38,2,-99,-99,-99,-99,-99,
biology,temper,39,2,-99,-99,-99,-99,-99,
remind,foam,40,2,-99,-99,-99,-99,-99,
replace,roach,1,3,60,3.641,1.865,1,8.644,
anger,decay,2,3,67,10.717,4.263,1,2.989,
chicken,beet,3,3,64,1.782,0.879,1,0.815,
need,faucet,4,3,81,1.463,0.63,1,0.749,
caring,skirt,5,3,44,2.559,1.775,1,0.719,
bacon,feud,6,3,77,1.246,0.438,1,1.129,
bleach,ruin,7,3,63,1.509,0.861,1,0.718,
bias,sirloin,8,3,58,1.67,0.879,1,0.871,
smother,surgery,9,3,81,1.214,0.43,1,0.726,
rock,milk,10,3,63,1.829,0.879,1,0.75,
fan,feature,11,3,71,1.518,0.647,1,0.775,
want,ascent,12,3,65,1.685,0.727,1,0.624,
fee,chowder,13,3,61,1.534,0.63,1,0.675,
grip,beach,14,3,79,1.535,0.632,1,0.782,
glue,force,15,3,70,1.256,0.447,1,1.083,
banner,glide,16,3,87,1.495,0.687,1,2.839,
forest,knob,17,3,81,1.471,0.543,1,1.366,
date,laugh,18,3,73,1.413,0.672,1,0.734,
bullet,walkway,19,3,79,1.462,0.704,1,0.744,
remind,foam,20,3,73,1.837,0.71,1,0.974,
shrink,mafia,21,3,71,1.326,0.632,0,2.336,
biology,temper,22,3,64,2.118,1.335,0,1.2,
pork,emperor,23,3,70,1.629,0.824,0,0.741,
pea,bathtub,24,3,73,1.479,0.823,0,0.807,
knock,otter,25,3,69,1.27,0.598,0,0.831,
visit,glove,26,3,70,2.686,1.815,0,0.84,
copy,bedroom,27,3,64,1.062,0.367,0,0.631,
port,cinema,28,3,73,1.671,0.295,0,0.791,
nerve,bumper,29,3,56,1.518,0.606,0,0.757,
climax,saucer,30,3,62,1.574,0.737,0,0.696,
calf,annoy,31,3,58,1.662,0.663,0,0.655,
mill,feast,32,3,69,1.286,0.326,0,0.543,
capital,figure,33,3,65,1.439,0.448,0,0.718,
link,crisis,34,3,68,1.367,0.575,0,0.606,
risk,zero,35,3,74,1.416,0.481,0,0.637,
collect,loyalty,36,3,66,1.448,0.488,0,0.598,
prison,loaf,37,3,70,1.422,0.567,0,0.607,
process,joker,38,3,58,1.392,0.591,0,0.503,
plant,worm,39,3,68,1.262,0.359,0,0.846,
find,clown,40,3,83,1.678,0.808,0,0.806,

