"subn","word1","word2","jol","jolrt","trial","list","practice","jolrank","jolrankp","restudyresp","restudyacc","restudyrtfirst","restudyrt","response","testacc","rtfirst","rt"
"1095","pea","bathtub",91,3.898,28,1,1,33,0.825,NA,NA,NA,NA,"bathtub",1,2.196,5.434
"1095","process","joker",13,2.959,14,1,1,11,0.275,NA,NA,NA,NA,"skip",0,4.451,6.646
"1095","smother","surgery",1,4.443,12,1,1,3,0.075,NA,NA,NA,NA,"pillow",0,11.116,13.35
"1095","forest","knob",1,3.149,23,1,1,5,0.125,NA,NA,NA,NA,"shovel",0,1.965,4.301
"1095","port","cinema",5,23.127,21,1,1,9,0.225,NA,NA,NA,NA,"beach",0,18.171,20.565
"1095","bias","sirloin",100,9.944,19,1,1,37,0.925,NA,NA,NA,NA,"sirloin",1,1.896,4.264
"1095","banner","glide",39,18.381,29,1,0,18,0.45,NA,NA,NA,NA,"glide",1,5.643,7.56
"1095","visit","glove",20,6.968,5,1,1,15,0.375,NA,NA,NA,NA,"love",0,12.698,14.403
"1095","copy","bedroom",81,7.566,40,1,1,27,0.675,NA,NA,NA,NA,"bedroom",1,1.918,4.451
"1095","prison","loaf",69,3.337,13,1,0,24,0.6,NA,NA,NA,NA,"loaf",1,1.499,3.274
"1095","biology","temper",1,3.665,18,1,0,2,0.05,NA,NA,NA,NA,"temper",1,2.704,4.626
"1095","risk","zero",1,19.869,30,1,1,1,0.025,NA,NA,NA,NA,"zero",1,1.628,3.498
"1095","calf","annoy",44,13.752,39,1,0,20,0.5,NA,NA,NA,NA,"annoy",1,8.435,11.022
"1095","remind","foam",15,19.136,6,1,0,12,0.3,NA,NA,NA,NA,"foam",1,8.572,10.639
"1095","plant","worm",100,2.826,16,1,1,35,0.875,NA,NA,NA,NA,"worm",1,1.481,3.362
"1095","replace","roach",4,4.843,25,1,0,6,0.15,NA,NA,NA,NA,"roach",1,9.218,11.318
"1095","link","crisis",81,31.785,3,1,0,26,0.65,NA,NA,NA,NA,"crisis",1,3.067,6.446
"1095","knock","otter",82,2.598,11,1,0,28,0.7,NA,NA,NA,NA,"otter",1,8.76,10.32
"1095","need","faucet",85,6.842,35,1,0,32,0.8,NA,NA,NA,NA,"faucet",1,6.976,9.242
"1095","anger","decay",38,14.504,33,1,1,17,0.425,NA,NA,NA,NA,"decay",1,6.036,8.575
"1095","glue","force",7,2.82,22,1,0,10,0.25,NA,NA,NA,NA,"skip",0,4.422,6.402
"1095","mill","feast",100,2.484,9,1,1,39,0.975,NA,NA,NA,NA,"feast",1,1.617,3.585
"1095","want","ascent",84,3.601,31,1,0,30,0.75,NA,NA,NA,NA,"ascent",1,4.102,6.993
"1095","fan","feature",18,18.034,7,1,1,13,0.325,NA,NA,NA,NA,"figure",0,1.517,8.042
"1095","bullet","walkway",44,4.321,4,1,1,19,0.475,NA,NA,NA,NA,"walkway",1,1.723,3.9
"1095","bleach","ruin",71,12.971,26,1,1,25,0.625,NA,NA,NA,NA,"ruin",1,2.402,4.21
"1095","chicken","beet",65,6.595,8,1,1,23,0.575,NA,NA,NA,NA,"beet",1,1.474,4.578
"1095","grip","beach",100,2.372,10,1,0,40,1,NA,NA,NA,NA,"beach",1,10.579,12.457
"1095","bacon","feud",100,2.649,36,1,0,38,0.95,NA,NA,NA,NA,"feud",1,3.032,4.997
"1095","nerve","bumper",1,38.89,37,1,0,4,0.1,NA,NA,NA,NA,"bumper",1,8.143,10.229
"1095","collect","loyalty",100,4.288,24,1,0,36,0.9,NA,NA,NA,NA,"loyalty",1,1.443,3.805
"1095","date","laugh",56,15.615,15,1,1,21,0.525,NA,NA,NA,NA,"laugh",1,1.866,3.546
"1095","find","clown",60,14.692,27,1,0,22,0.55,NA,NA,NA,NA,"clown",1,2.609,4.531
"1095","rock","milk",82,8.517,34,1,1,29,0.725,NA,NA,NA,NA,"milk",1,1.748,3.402
"1095","caring","skirt",85,4.021,20,1,1,31,0.775,NA,NA,NA,NA,"skirt",1,1.274,3.063
"1095","shrink","mafia",5,27.36,2,1,0,8,0.2,NA,NA,NA,NA,"skip",0,5.087,7.855
"1095","capital","figure",4,16.526,32,1,1,7,0.175,NA,NA,NA,NA,"figure",1,1.486,4.027
"1095","fee","chowder",29,11.817,17,1,0,16,0.4,NA,NA,NA,NA,"chowder",1,13.994,17.188
"1095","pork","emperor",100,5.134,38,1,0,34,0.85,NA,NA,NA,NA,"emperor",1,1.394,3.904
"1095","climax","saucer",19,4.136,1,1,0,14,0.35,NA,NA,NA,NA,"alien",0,13.263,15.397
"1099","pork","emperor",55,1.4,12,1,1,21,0.525,NA,NA,NA,NA,"hind",0,2.95,3.71
"1099","visit","glove",30,1.611,40,1,0,12,0.3,NA,NA,NA,NA,"clear",0,1.848,2.72
"1099","anger","decay",30,1.417,31,1,1,13,0.325,NA,NA,NA,NA,"monster",0,2.912,3.728
"1099","pea","bathtub",21,1.651,7,1,0,4,0.1,NA,NA,NA,NA,"calm",0,3.201,4.16
"1099","want","ascent",67,3.521,34,1,0,32,0.8,NA,NA,NA,NA,"nature",0,2.096,3.463
"1099","mill","feast",28,1.247,20,1,1,11,0.275,NA,NA,NA,NA,"rock",0,1.416,3.208
"1099","bacon","feud",40,1.803,4,1,0,18,0.45,NA,NA,NA,NA,"under",0,4.956,5.911
"1099","grip","beach",18,1.716,18,1,0,2,0.05,NA,NA,NA,NA,"stack",0,1.587,2.463
"1099","find","clown",27,1.82,30,1,1,7,0.175,NA,NA,NA,NA,"seek",0,1.56,2.24
"1099","caring","skirt",28,1.588,15,1,1,9,0.225,NA,NA,NA,NA,"love",0,1.343,1.966
"1099","collect","loyalty",67,2.831,24,1,1,33,0.825,NA,NA,NA,NA,"money",0,1.193,1.88
"1099","glue","force",65,1.955,5,1,0,30,0.75,NA,NA,NA,NA,"hard",0,3.035,3.64
"1099","climax","saucer",40,1.459,22,1,1,19,0.475,NA,NA,NA,NA,"zero",0,1.049,1.76
"1099","need","faucet",56,2.413,38,1,0,22,0.55,NA,NA,NA,NA,"now",0,1.305,2.776
"1099","forest","knob",43,1.74,29,1,0,20,0.5,NA,NA,NA,NA,"jungle",0,2.17,3.016
"1099","banner","glide",28,2.931,8,1,0,8,0.2,NA,NA,NA,NA,"time",0,1.408,1.992
"1099","fee","chowder",23,1.499,19,1,0,6,0.15,NA,NA,NA,NA,"bank",0,2.249,2.8
"1099","nerve","bumper",28,1.452,3,1,0,10,0.25,NA,NA,NA,NA,"steel",0,1.151,1.999
"1099","bias","sirloin",22,1.587,6,1,1,5,0.125,NA,NA,NA,NA,"information",0,0.984,2.584
"1099","date","laugh",36,1.555,37,1,0,16,0.4,NA,NA,NA,NA,"number",0,2.216,3.207
"1099","rock","milk",32,4.481,35,1,0,14,0.35,NA,NA,NA,NA,"milk",1,0.983,1.655
"1099","capital","figure",72,3.497,39,1,1,37,0.925,NA,NA,NA,NA,"gain",0,0.943,1.487
"1099","calf","annoy",68,1.676,1,1,0,36,0.9,NA,NA,NA,NA,"kill",0,3.6,4.352
"1099","port","cinema",18,1.643,26,1,1,1,0.025,NA,NA,NA,NA,"sight",0,2.153,4.039
"1099","remind","foam",67,2.318,27,1,0,34,0.85,NA,NA,NA,NA,"time",0,3.455,4.015
"1099","knock","otter",81,2.413,2,1,1,39,0.975,NA,NA,NA,NA,"wood",0,1.488,2.216
"1099","plant","worm",57,1.477,10,1,0,24,0.6,NA,NA,NA,NA,"feature",0,2.096,2.959
"1099","link","crisis",73,1.803,32,1,0,38,0.95,NA,NA,NA,NA,"desk",0,3.448,4.248
"1099","biology","temper",66,1.771,16,1,1,31,0.775,NA,NA,NA,NA,"understand",0,2.897,4.278
"1099","risk","zero",59,1.885,23,1,0,26,0.65,NA,NA,NA,NA,"reward",0,1.396,2.439
"1099","fan","feature",67,2.03,21,1,1,35,0.875,NA,NA,NA,NA,"fanatic",0,0.89,4.408
"1099","replace","roach",57,1.795,36,1,1,25,0.625,NA,NA,NA,NA,"reuse",0,1.311,2.551
"1099","process","joker",61,2.44,17,1,1,27,0.675,NA,NA,NA,NA,"understand",0,1.711,3.079
"1099","copy","bedroom",62,1.794,13,1,0,28,0.7,NA,NA,NA,NA,"machine",0,1.504,2.32
"1099","prison","loaf",37,2.277,14,1,1,17,0.425,NA,NA,NA,NA,"reform",0,1.201,2.015
"1099","bleach","ruin",19,2.206,11,1,1,3,0.075,NA,NA,NA,NA,"clothes",0,2.376,3.312
"1099","smother","surgery",57,2.083,25,1,1,23,0.575,NA,NA,NA,NA,"destroy",0,3.769,4.959
"1099","bullet","walkway",34,1.265,9,1,1,15,0.375,NA,NA,NA,NA,"hit",0,1.265,3.232
"1099","shrink","mafia",65,1.699,28,1,1,29,0.725,NA,NA,NA,NA,"size",0,1.672,2.663
"1099","chicken","beet",93,2.252,33,1,0,40,1,NA,NA,NA,NA,"beet",1,1.416,2.375
"1297","nerve","bumper",1,1.58,10,1,1,17,0.425,NA,NA,NA,NA,"fiber",0,2.245,6.159
"1297","remind","foam",1,1.949,40,1,1,11,0.275,NA,NA,NA,NA,"restore",0,4.053,5.128
"1297","biology","temper",1,1.508,17,1,0,12,0.3,NA,NA,NA,NA,"test",0,1.457,2.75
"1297","rock","milk",1,5.178,16,1,1,1,0.025,NA,NA,NA,NA,"salt",0,1.059,1.754
"1297","copy","bedroom",1,2.087,12,1,1,3,0.075,NA,NA,NA,NA,"edit",0,2.535,3.941
"1297","caring","skirt",1,1.902,22,1,0,18,0.45,NA,NA,NA,NA,"time",0,3.813,4.502
"1297","visit","glove",1,2.61,39,1,0,24,0.6,NA,NA,NA,NA,"empire",0,1.327,2.918
"1297","banner","glide",1,1.478,24,1,1,29,0.725,NA,NA,NA,NA,"paste",0,5.595,6.407
"1297","pea","bathtub",1,1.585,38,1,0,28,0.7,NA,NA,NA,NA,"gun",0,2.227,2.699
"1297","link","crisis",2,3.855,5,1,1,35,0.875,NA,NA,NA,NA,"past",0,1.301,1.903
"1297","smother","surgery",1,3.787,1,1,1,31,0.775,NA,NA,NA,NA,"flame",0,1.146,2.752
"1297","bleach","ruin",15,2.809,18,1,0,38,0.95,NA,NA,NA,NA,"ruin",1,2.459,3.075
"1297","bias","sirloin",1,1.963,30,1,0,8,0.2,NA,NA,NA,NA,"tape",0,4.22,5.106
"1297","port","cinema",1,1.534,3,1,0,30,0.75,NA,NA,NA,NA,"whitney",0,2.426,9.933
"1297","bullet","walkway",1,2.187,35,1,1,9,0.225,NA,NA,NA,NA,"test",0,2.649,3.828
"1297","knock","otter",1,1.922,9,1,0,10,0.25,NA,NA,NA,NA,"life",0,1.329,1.882
"1297","climax","saucer",1,1.994,28,1,0,4,0.1,NA,NA,NA,NA,"settle",0,1.726,2.642
"1297","plant","worm",1,1.463,19,1,1,25,0.625,NA,NA,NA,NA,"star",0,2.94,3.607
"1297","fee","chowder",1,13.282,8,1,1,13,0.325,NA,NA,NA,NA,"golf",0,1.971,6.456
"1297","capital","figure",1,1.835,36,1,0,20,0.5,NA,NA,NA,NA,"display",0,2.01,3.041
"1297","replace","roach",9,3.376,2,1,1,37,0.925,NA,NA,NA,NA,"reuse",0,1.558,3.491
"1297","glue","force",3,2.617,7,1,0,36,0.9,NA,NA,NA,NA,"banana",0,2.6,4.43
"1297","grip","beach",1,2.014,13,1,0,34,0.85,NA,NA,NA,NA,"paste",0,2.393,3.393
"1297","pork","emperor",61,2.485,14,1,0,40,1,NA,NA,NA,NA,"emperor",1,1.17,6.022
"1297","bacon","feud",50,4.149,27,1,1,39,0.975,NA,NA,NA,NA,"fued",0,1.346,2.937
"1297","want","ascent",1,2.936,20,1,1,15,0.375,NA,NA,NA,NA,"need ",0,1.63,2.955
"1297","mill","feast",1,2.688,15,1,0,2,0.05,NA,NA,NA,NA,"worker",0,1.897,2.862
"1297","prison","loaf",1,1.723,23,1,1,19,0.475,NA,NA,NA,NA,"form",0,1.648,2.173
"1297","fan","feature",1,1.787,32,1,1,5,0.125,NA,NA,NA,NA,"switch",0,1.963,3.031
"1297","shrink","mafia",1,2.173,29,1,1,23,0.575,NA,NA,NA,NA,"wrap",0,1.838,2.377
"1297","calf","annoy",1,2.251,34,1,0,6,0.15,NA,NA,NA,NA,"muscle",0,1.937,2.845
"1297","find","clown",1,1.541,6,1,1,27,0.675,NA,NA,NA,NA,"tough",0,2.254,5.243
"1297","anger","decay",1,2.015,4,1,1,33,0.825,NA,NA,NA,NA,"saw",0,5.021,5.598
"1297","date","laugh",1,1.746,26,1,1,21,0.525,NA,NA,NA,NA,"weather",0,1.36,2.298
"1297","chicken","beet",1,8.598,21,1,0,32,0.8,NA,NA,NA,NA,"bath",0,4.257,5.067
"1297","need","faucet",1,1.609,25,1,0,16,0.4,NA,NA,NA,NA,"desire",0,1.254,2.051
"1297","process","joker",1,1.901,31,1,1,7,0.175,NA,NA,NA,NA,"wait",0,2.299,2.897
"1297","forest","knob",1,15.316,33,1,0,14,0.35,NA,NA,NA,NA,"hunt",0,2.795,3.557
"1297","risk","zero",1,1.855,37,1,0,22,0.55,NA,NA,NA,NA,"truth",0,3.643,11.128
"1297","collect","loyalty",1,1.476,11,1,0,26,0.65,NA,NA,NA,NA,"safe ",0,1.686,4.419
"1466","pork","emperor",22,1.508,32,1,0,23,0.575,NA,NA,NA,NA,"emperor",1,11.646,14.5
"1466","want","ascent",13,1.677,1,1,1,10,0.25,NA,NA,NA,NA,"need",0,25.019,26.378
"1466","replace","roach",25,1.627,8,1,0,25,0.625,NA,NA,NA,NA,"collect",0,18.592,20.36
"1466","capital","figure",10,1.356,3,1,0,7,0.175,NA,NA,NA,NA,"state",0,3.516,5.02
"1466","biology","temper",17,3.31,26,1,0,15,0.375,NA,NA,NA,NA,"test",0,4.794,6.769
"1466","need","faucet",15,2.147,29,1,0,13,0.325,NA,NA,NA,NA,"want",0,1.257,2.937
"1466","prison","loaf",18,3.035,4,1,1,16,0.4,NA,NA,NA,NA,"system",0,1.241,3.385
"1466","caring","skirt",13,1.587,36,1,0,9,0.225,NA,NA,NA,NA,"want",0,7.133,8.686
"1466","link","crisis",18,1.882,28,1,0,17,0.425,NA,NA,NA,NA,"sword",0,3.246,4.812
"1466","process","joker",23,1.636,16,1,1,24,0.6,NA,NA,NA,NA,"test",0,2.336,3.928
"1466","nerve","bumper",35,1.668,24,1,1,38,0.95,NA,NA,NA,NA,"anger",0,3.197,4.743
"1466","visit","glove",20,1.452,7,1,1,18,0.45,NA,NA,NA,NA,"country",0,1.287,3.321
"1466","remind","foam",15,1.772,27,1,1,12,0.3,NA,NA,NA,NA,"want",0,2.563,4.444
"1466","forest","knob",34,1.58,31,1,0,37,0.925,NA,NA,NA,NA,"tree",0,1.591,3.423
"1466","rock","milk",27,1.852,39,1,1,28,0.7,NA,NA,NA,NA,"hard",0,1.561,3.09
"1466","date","laugh",28,1.922,12,1,1,30,0.75,NA,NA,NA,NA,"month",0,1.992,3.824
"1466","risk","zero",33,1.627,5,1,1,36,0.9,NA,NA,NA,NA,"temper",0,1.765,3.62
"1466","bacon","feud",6,1.626,25,1,1,2,0.05,NA,NA,NA,NA,"food",0,1.688,3.138
"1466","knock","otter",16,1.731,14,1,1,14,0.35,NA,NA,NA,NA,"bully",0,3.076,5.028
"1466","fan","feature",21,1.692,9,1,1,22,0.55,NA,NA,NA,NA,"judge",0,1.615,3.456
"1466","fee","chowder",10,1.874,18,1,1,8,0.2,NA,NA,NA,NA,"money",0,1.376,3.311
"1466","climax","saucer",25,1.819,6,1,1,26,0.65,NA,NA,NA,NA,"want",0,1.6,3.169
"1466","chicken","beet",10,1.643,19,1,0,5,0.125,NA,NA,NA,NA,"roast",0,1.28,2.984
"1466","bleach","ruin",29,1.34,38,1,1,32,0.8,NA,NA,NA,NA,"white",0,1.353,4.199
"1466","port","cinema",30,1.801,20,1,1,34,0.85,NA,NA,NA,NA,"dock",0,1.392,2.913
"1466","glue","force",30,1.443,21,1,0,33,0.825,NA,NA,NA,NA,"stick",0,1.376,3.058
"1466","smother","surgery",35,1.379,37,1,0,39,0.975,NA,NA,NA,NA,"food",0,2.197,3.582
"1466","pea","bathtub",32,1.475,33,1,0,35,0.875,NA,NA,NA,NA,"tiny",0,1.831,3.423
"1466","anger","decay",20,1.915,23,1,0,21,0.525,NA,NA,NA,NA,"temper",0,1.447,3.4
"1466","mill","feast",29,1.85,30,1,0,31,0.775,NA,NA,NA,NA,"wind",0,1.304,2.977
"1466","copy","bedroom",26,3.865,17,1,0,27,0.675,NA,NA,NA,NA,"paste",0,1.224,3.2
"1466","collect","loyalty",10,1.906,13,1,1,6,0.15,NA,NA,NA,NA,"temper",0,1.575,3.328
"1466","bias","sirloin",9,1.629,40,1,1,4,0.1,NA,NA,NA,NA,"opinion",0,1.585,4.079
"1466","calf","annoy",27,3.751,34,1,0,29,0.725,NA,NA,NA,NA,"horse",0,2.101,3.573
"1466","plant","worm",20,1.805,2,1,0,19,0.475,NA,NA,NA,NA,"seeds",0,1.265,2.698
"1466","banner","glide",3,2.61,35,1,0,1,0.025,NA,NA,NA,NA,"flags",0,2.176,4.151
"1466","shrink","mafia",14,1.707,10,1,0,11,0.275,NA,NA,NA,NA,"enlarge",0,2.263,4.647
"1466","grip","beach",36,1.635,11,1,1,40,1,NA,NA,NA,NA,"gloves",0,1.785,3.415
"1466","find","clown",20,1.619,15,1,1,20,0.5,NA,NA,NA,NA,"want",0,2.135,3.847
"1466","bullet","walkway",7,1.866,22,1,0,3,0.075,NA,NA,NA,NA,"unsure",0,1.352,4.679
"1511","capital","figure",12,2.259,34,1,0,8,0.2,NA,NA,NA,NA,"SKIP",0,14.823,15.38
"1511","anger","decay",26,3.097,19,1,1,27,0.675,NA,NA,NA,NA,"SKIP",0,5.432,5.878
"1511","find","clown",32,1.574,32,1,1,29,0.725,NA,NA,NA,NA,"clown",1,2.769,4.47
"1511","calf","annoy",12,1.541,12,1,1,9,0.225,NA,NA,NA,NA,"SKIP",0,1.793,2.3
"1511","caring","skirt",80,3.556,25,1,0,40,1,NA,NA,NA,NA,"skirt",1,2.418,4.95
"1511","shrink","mafia",6,2.235,4,1,0,2,0.05,NA,NA,NA,NA,"mafia",1,5.418,7.363
"1511","climax","saucer",21,2.372,33,1,1,17,0.425,NA,NA,NA,NA,"SKIP",0,6.195,6.649
"1511","pork","emperor",78,2.079,16,1,0,38,0.95,NA,NA,NA,NA,"emperor",1,5.805,13.788
"1511","prison","loaf",24,1.635,30,1,0,24,0.6,NA,NA,NA,NA,"loaf",1,6.489,8.104
"1511","bacon","feud",24,3.503,7,1,1,25,0.625,NA,NA,NA,NA,"SKIP",0,2.491,3.022
"1511","fan","feature",9,2.246,17,1,0,6,0.15,NA,NA,NA,NA,"feature",1,4.305,9.406
"1511","risk","zero",14,1.802,35,1,1,11,0.275,NA,NA,NA,NA,"SKIP",0,5.121,5.578
"1511","want","ascent",22,1.674,29,1,0,18,0.45,NA,NA,NA,NA,"ascent",1,5.226,9.073
"1511","remind","foam",73,4.404,21,1,1,37,0.925,NA,NA,NA,NA,"foam",1,5.361,7.752
"1511","grip","beach",65,3.6,36,1,1,35,0.875,NA,NA,NA,NA,"SKIP",0,14.052,14.568
"1511","knock","otter",16,3.484,27,1,0,12,0.3,NA,NA,NA,NA,"SKIP",0,6.469,6.838
"1511","banner","glide",32,2.202,26,1,0,30,0.75,NA,NA,NA,NA,"glide",1,7.185,12.915
"1511","biology","temper",22,1.88,24,1,0,20,0.5,NA,NA,NA,NA,"temper",1,2.407,8.437
"1511","collect","loyalty",25,2.247,38,1,0,26,0.65,NA,NA,NA,NA,"SKIP",0,9.09,9.579
"1511","smother","surgery",7,2.287,20,1,0,4,0.1,NA,NA,NA,NA,"surgery",1,7.54,10.551
"1511","rock","milk",11,1.747,39,1,1,7,0.175,NA,NA,NA,NA,"SKIP",0,6.953,7.721
"1511","chicken","beet",48,3.803,6,1,1,31,0.775,NA,NA,NA,NA,"beet",1,5.725,7.589
"1511","nerve","bumper",19,2.233,2,1,1,15,0.375,NA,NA,NA,NA,"SKIP",0,5.449,5.851
"1511","port","cinema",8,1.898,22,1,1,5,0.125,NA,NA,NA,NA,"SKIP",0,5.853,6.361
"1511","copy","bedroom",26,4.196,5,1,0,28,0.7,NA,NA,NA,NA,"bedroom",1,2.536,5.34
"1511","replace","roach",22,3.548,8,1,1,19,0.475,NA,NA,NA,NA,"SKIP",0,9.279,9.819
"1511","need","faucet",3,1.911,1,1,1,1,0.025,NA,NA,NA,NA,"SKIP",0,8.386,8.816
"1511","forest","knob",13,1.907,31,1,0,10,0.25,NA,NA,NA,NA,"knob",1,3.265,5.131
"1511","fee","chowder",18,2.184,14,1,0,14,0.35,NA,NA,NA,NA,"chowder",1,4.879,7.459
"1511","plant","worm",67,34.56,23,1,0,36,0.9,NA,NA,NA,NA,"worm",1,2.506,4.4
"1511","date","laugh",18,1.87,13,1,1,13,0.325,NA,NA,NA,NA,"SKIP",0,6.373,7.005
"1511","pea","bathtub",61,2.067,15,1,1,33,0.825,NA,NA,NA,NA,"SKIP",0,6.027,6.469
"1511","bullet","walkway",23,1.898,18,1,0,22,0.55,NA,NA,NA,NA,"walkway",1,5.932,8.527
"1511","mill","feast",7,2.6,3,1,1,3,0.075,NA,NA,NA,NA,"SKIP",0,2.64,3.247
"1511","link","crisis",24,2.421,37,1,1,23,0.575,NA,NA,NA,NA,"SKIP",0,17.222,17.885
"1511","glue","force",60,16.552,40,1,0,32,0.8,NA,NA,NA,NA,"force",1,6.703,8.847
"1511","visit","glove",20,5.76,28,1,0,16,0.4,NA,NA,NA,NA,"glove",1,4.864,7.123
"1511","process","joker",23,1.613,10,1,1,21,0.525,NA,NA,NA,NA,"SKIP",0,7.317,7.751
"1511","bias","sirloin",80,2.082,11,1,1,39,0.975,NA,NA,NA,NA,"sirloin ",0,5.404,9.143
"1511","bleach","ruin",64,2.022,9,1,0,34,0.85,NA,NA,NA,NA,"ruin",1,8.651,12.446
"1725","port","cinema",30,1.918,27,1,1,11,0.275,NA,NA,NA,NA,"cinema",1,25.222,28.314
"1725","glue","force",86,2.784,11,1,1,39,0.975,NA,NA,NA,NA,"force",1,2.308,4.525
"1725","want","ascent",35,2.399,9,1,0,14,0.35,NA,NA,NA,NA,"skip",0,31.171,33.336
"1725","rock","milk",16,5.15,36,1,0,2,0.05,NA,NA,NA,NA,"milk",1,12.74,15.846
"1725","fan","feature",29,4.814,4,1,0,8,0.2,NA,NA,NA,NA,"skip",0,27.734,30.336
"1725","risk","zero",93,3.422,26,1,0,40,1,NA,NA,NA,NA,"zero",1,2.908,5.703
"1725","knock","otter",22,2.15,29,1,1,5,0.125,NA,NA,NA,NA,"skip",0,83.546,85.88
"1725","bleach","ruin",72,2.773,15,1,0,30,0.75,NA,NA,NA,NA,"ruin",1,28.096,31.342
"1725","pea","bathtub",29,1.782,39,1,0,10,0.25,NA,NA,NA,NA,"bathtub",1,26.796,30.511
"1725","process","joker",38,1.966,28,1,1,19,0.475,NA,NA,NA,NA,"skip",0,3.476,5.712
"1725","climax","saucer",18,2.126,37,1,1,3,0.075,NA,NA,NA,NA,"saucer",1,11.684,14.119
"1725","forest","knob",38,2.824,25,1,0,18,0.45,NA,NA,NA,NA,"skip",0,1.82,3.909
"1725","bias","sirloin",73,2.31,21,1,0,32,0.8,NA,NA,NA,NA,"sirloin",1,18.3,21.567
"1725","grip","beach",70,1.867,22,1,0,28,0.7,NA,NA,NA,NA,"skip",0,41.98,44.319
"1725","banner","glide",60,1.614,31,1,1,23,0.575,NA,NA,NA,NA,"skip",0,37.251,41.552
"1725","shrink","mafia",81,2.383,33,1,1,37,0.925,NA,NA,NA,NA,"mafia",1,6.866,15.135
"1725","need","faucet",61,5.005,24,1,0,24,0.6,NA,NA,NA,NA,"faucet",1,15.79,19.455
"1725","remind","foam",62,2.054,6,1,1,25,0.625,NA,NA,NA,NA,"skip",0,25.89,28.23
"1725","find","clown",19,2.694,20,1,0,4,0.1,NA,NA,NA,NA,"skip",0,2.934,5.143
"1725","nerve","bumper",37,1.991,30,1,1,17,0.425,NA,NA,NA,NA,"bumper",1,29.38,33.175
"1725","prison","loaf",29,2.311,5,1,1,9,0.225,NA,NA,NA,NA,"clown",0,31.768,34.535
"1725","calf","annoy",39,2.558,32,1,0,20,0.5,NA,NA,NA,NA,"milk",0,3.148,5.079
"1725","chicken","beet",81,2.695,10,1,0,36,0.9,NA,NA,NA,NA,"beet",1,18.318,20.638
"1725","bullet","walkway",68,2.023,13,1,1,27,0.675,NA,NA,NA,NA,"walkway",1,15.802,19.088
"1725","collect","loyalty",31,3.255,12,1,0,12,0.3,NA,NA,NA,NA,"loyalty",1,17.881,22.191
"1725","caring","skirt",49,6.999,17,1,0,22,0.55,NA,NA,NA,NA,"skip",0,1.672,3.815
"1725","bacon","feud",73,2.487,14,1,1,31,0.775,NA,NA,NA,NA,"feud",1,7.388,10.142
"1725","anger","decay",76,2.447,23,1,1,33,0.825,NA,NA,NA,NA,"decay",1,10.111,13.657
"1725","pork","emperor",64,2.055,34,1,0,26,0.65,NA,NA,NA,NA,"chop",0,3.052,5.501
"1725","copy","bedroom",76,2.662,38,1,0,34,0.85,NA,NA,NA,NA,"bedroom",1,5.092,8.424
"1725","smother","surgery",8,10.72,40,1,1,1,0.025,NA,NA,NA,NA,"surgery",1,6.805,10.553
"1725","date","laugh",80,2.936,8,1,1,35,0.875,NA,NA,NA,NA,"fun",0,4.807,8.789
"1725","replace","roach",22,2.174,3,1,0,6,0.15,NA,NA,NA,NA,"skip",0,2.036,4.272
"1725","link","crisis",32,2.094,7,1,1,13,0.325,NA,NA,NA,NA,"skip",0,2.122,4.406
"1725","fee","chowder",72,3.238,18,1,1,29,0.725,NA,NA,NA,NA,"chowder",1,1.879,5.847
"1725","mill","feast",36,1.974,19,1,1,15,0.375,NA,NA,NA,NA,"feast",1,10.94,13.839
"1725","capital","figure",85,2.862,2,1,0,38,0.95,NA,NA,NA,NA,"figure",1,10.18,13.631
"1725","visit","glove",27,2.088,35,1,1,7,0.175,NA,NA,NA,NA,"skip",0,3.593,6.047
"1725","biology","temper",37,3.973,1,1,0,16,0.4,NA,NA,NA,NA,"skip",0,9.85,12.87
"1725","plant","worm",42,1.944,16,1,1,21,0.525,NA,NA,NA,NA,"worm",1,2.345,4.958
"2252","mill","feast",1,3.135,23,1,0,5,0.125,NA,NA,NA,NA,"saw",0,4.031,5.958
"2252","chicken","beet",1,1.821,34,1,0,37,0.925,NA,NA,NA,NA,"brick",0,2.663,4.148
"2252","plant","worm",1,1.747,31,1,0,13,0.325,NA,NA,NA,NA,"egg",0,1.834,2.817
"2252","remind","foam",1,1.923,7,1,0,35,0.875,NA,NA,NA,NA,"cage",0,4.041,5.184
"2252","anger","decay",1,1.989,22,1,1,8,0.2,NA,NA,NA,NA,"beg",0,4.432,5.374
"2252","climax","saucer",1,1.65,37,1,0,25,0.625,NA,NA,NA,NA,"newt",0,3.833,5.305
"2252","collect","loyalty",1,1.801,24,1,0,21,0.525,NA,NA,NA,NA,"reform",0,1.562,3.113
"2252","link","crisis",1,4.87,20,1,0,1,0.025,NA,NA,NA,NA,"mat",0,4.806,5.906
"2252","visit","glove",1,1.695,25,1,0,27,0.675,NA,NA,NA,NA,"train",0,3.333,4.941
"2252","fan","feature",1,1.75,1,1,1,36,0.9,NA,NA,NA,NA,"system",0,1.814,3.446
"2252","bleach","ruin",1,2.816,36,1,1,4,0.1,NA,NA,NA,NA,"oven",0,5.84,7.181
"2252","rock","milk",1,1.917,28,1,1,38,0.95,NA,NA,NA,NA,"storage",0,5.242,6.676
"2252","knock","otter",1,1.746,29,1,1,12,0.3,NA,NA,NA,NA,"rope",0,1.597,3.064
"2252","find","clown",1,1.894,38,1,1,28,0.7,NA,NA,NA,NA,"tape",0,3.051,4.508
"2252","bias","sirloin",1,1.758,14,1,1,20,0.5,NA,NA,NA,NA,"new",0,99.14,100.511
"2252","pork","emperor",55,4.83,16,1,0,39,0.975,NA,NA,NA,NA,"eliminate",0,1.772,7.018
"2252","risk","zero",1,1.928,2,1,0,7,0.175,NA,NA,NA,NA,"time",0,4.754,5.935
"2252","banner","glide",1,2.156,39,1,1,22,0.55,NA,NA,NA,NA,"line",0,2.658,3.93
"2252","replace","roach",1,2.065,18,1,1,10,0.25,NA,NA,NA,NA,"temper",0,5.766,7.251
"2252","prison","loaf",1,1.79,33,1,1,30,0.75,NA,NA,NA,NA,"week",0,2.835,4.185
"2252","copy","bedroom",1,1.777,13,1,1,34,0.85,NA,NA,NA,NA,"furnace",0,3.008,5.526
"2252","shrink","mafia",1,2.558,40,1,1,2,0.05,NA,NA,NA,NA,"lamp",0,2.691,4.122
"2252","need","faucet",1,1.877,30,1,0,11,0.275,NA,NA,NA,NA,"time",0,18.872,20.022
"2252","bullet","walkway",1,2.359,6,1,0,3,0.075,NA,NA,NA,NA,"very",0,3.018,4.075
"2252","process","joker",1,2.083,9,1,1,16,0.4,NA,NA,NA,NA,"elminate",0,1.589,3.714
"2252","fee","chowder",1,1.596,3,1,0,33,0.825,NA,NA,NA,NA,"bridge",0,2.06,3.739
"2252","grip","beach",1,1.813,21,1,0,9,0.225,NA,NA,NA,NA,"keep",0,2.457,3.95
"2252","capital","figure",1,1.968,5,1,1,6,0.15,NA,NA,NA,NA,"temple",0,4.322,5.877
"2252","want","ascent",1,2.923,4,1,0,15,0.375,NA,NA,NA,NA,"quick",0,3.116,4.84
"2252","port","cinema",1,3.258,35,1,0,17,0.425,NA,NA,NA,NA,"forage",0,1.531,5.697
"2252","caring","skirt",1,2.069,26,1,1,32,0.8,NA,NA,NA,NA,"city",0,3.386,4.62
"2252","bacon","feud",1,2.075,11,1,1,14,0.35,NA,NA,NA,NA,"temp",0,3.885,5.28
"2252","nerve","bumper",1,2.357,8,1,1,24,0.6,NA,NA,NA,NA,"system",0,2.22,4.669
"2252","pea","bathtub",1,2.779,27,1,1,18,0.45,NA,NA,NA,NA,"keep",0,1.959,4.121
"2252","glue","force",1,1.927,19,1,1,26,0.65,NA,NA,NA,NA,"rubber",0,1.662,3.762
"2252","forest","knob",100,2.405,10,1,1,40,1,NA,NA,NA,NA,"knob",1,1.332,2.68
"2252","date","laugh",1,1.797,32,1,0,19,0.475,NA,NA,NA,NA,"dame",0,3.162,4.928
"2252","calf","annoy",1,1.782,12,1,0,29,0.725,NA,NA,NA,NA,"pinky",0,2.009,4.067
"2252","biology","temper",1,2.862,17,1,0,23,0.575,NA,NA,NA,NA,"report",0,1.637,3.055
"2252","smother","surgery",1,1.671,15,1,0,31,0.775,NA,NA,NA,NA,"bee",0,3.165,7.364
"2317","date","laugh",33,3.846,18,1,0,12,0.3,NA,NA,NA,NA,"?",0,8.264,9.252
"2317","need","faucet",41,1.879,24,1,1,17,0.425,NA,NA,NA,NA,"bail",0,2.417,5.334
"2317","glue","force",43,1.687,12,1,1,21,0.525,NA,NA,NA,NA,"?",0,4.357,5.319
"2317","banner","glide",44,4.894,31,1,1,23,0.575,NA,NA,NA,NA,"?",0,1.455,2.839
"2317","prison","loaf",97,3.815,35,1,0,40,1,NA,NA,NA,NA,"loaf",1,1.13,2.407
"2317","collect","loyalty",12,2.023,28,1,0,2,0.05,NA,NA,NA,NA,"?",0,3.893,4.871
"2317","bacon","feud",71,1.671,13,1,1,37,0.925,NA,NA,NA,NA,"commit",0,2.226,3.871
"2317","anger","decay",38,1.838,15,1,0,14,0.35,NA,NA,NA,NA,"?",0,2.19,3.096
"2317","visit","glove",64,2.575,21,1,0,34,0.85,NA,NA,NA,NA,"?",0,1.195,2.167
"2317","process","joker",57,1.535,6,1,0,30,0.75,NA,NA,NA,NA,"felony",0,9.689,11.12
"2317","biology","temper",65,2.232,10,1,0,36,0.9,NA,NA,NA,NA,"?",0,1.32,1.823
"2317","find","clown",13,1.599,17,1,1,3,0.075,NA,NA,NA,NA,"?",0,1.076,1.551
"2317","rock","milk",55,4.351,14,1,0,28,0.7,NA,NA,NA,NA,"?",0,1.338,1.935
"2317","bullet","walkway",21,1.536,37,1,0,6,0.15,NA,NA,NA,NA,"?",0,1.031,1.471
"2317","knock","otter",48,3.656,22,1,0,26,0.65,NA,NA,NA,NA,"?",0,1.009,1.967
"2317","plant","worm",65,1.735,4,1,1,35,0.875,NA,NA,NA,NA,"anger",0,3.602,4.823
"2317","capital","figure",40,1.455,5,1,0,16,0.4,NA,NA,NA,NA,"?",0,1.29,2.126
"2317","climax","saucer",27,1.519,33,1,1,9,0.225,NA,NA,NA,NA,"?",0,1.13,2.071
"2317","link","crisis",42,22.42,2,1,0,20,0.5,NA,NA,NA,NA,"?",0,1.357,2.52
"2317","grip","beach",63,2.831,11,1,1,33,0.825,NA,NA,NA,NA,"?",0,6.012,6.432
"2317","smother","surgery",30,2.183,16,1,1,11,0.275,NA,NA,NA,NA,"?",0,2.262,3.415
"2317","chicken","beet",46,2.119,26,1,1,25,0.625,NA,NA,NA,NA,"fair",0,8.426,9.519
"2317","forest","knob",56,1.813,8,1,1,29,0.725,NA,NA,NA,NA,"?",0,1.079,1.871
"2317","caring","skirt",39,2.968,1,1,1,15,0.375,NA,NA,NA,NA,"?",0,1.008,1.502
"2317","bleach","ruin",46,1.952,32,1,0,24,0.6,NA,NA,NA,NA,"?",0,1.298,1.896
"2317","replace","roach",43,2.031,30,1,0,22,0.55,NA,NA,NA,NA,"?",0,1.627,2.335
"2317","want","ascent",16,27.624,20,1,0,4,0.1,NA,NA,NA,NA,"?",0,0.926,7.744
"2317","remind","foam",57,1.822,27,1,1,31,0.775,NA,NA,NA,NA,"shirt",0,1.922,3.344
"2317","bias","sirloin",89,2.466,38,1,1,39,0.975,NA,NA,NA,NA,"commit",0,3.137,4.607
"2317","port","cinema",78,2.399,9,1,0,38,0.95,NA,NA,NA,NA,"crime",0,9.551,10.943
"2317","mill","feast",42,1.744,7,1,1,19,0.475,NA,NA,NA,NA,"?",0,3.43,5.182
"2317","nerve","bumper",41,1.928,19,1,0,18,0.45,NA,NA,NA,NA,"?",0,0.848,1.311
"2317","copy","bedroom",54,2.342,23,1,1,27,0.675,NA,NA,NA,NA,"?",0,0.732,1.256
"2317","pork","emperor",34,2.439,34,1,1,13,0.325,NA,NA,NA,NA,"?",0,2.249,2.849
"2317","shrink","mafia",63,4.11,39,1,0,32,0.8,NA,NA,NA,NA,"?",0,1.259,1.831
"2317","fan","feature",21,1.735,25,1,1,5,0.125,NA,NA,NA,NA,"?",0,1.655,2.239
"2317","pea","bathtub",8,1.927,29,1,1,1,0.025,NA,NA,NA,NA,"cake",0,3.268,4.528
"2317","fee","chowder",22,2.503,40,1,1,7,0.175,NA,NA,NA,NA,"?",0,0.942,2
"2317","risk","zero",27,2.03,3,1,0,8,0.2,NA,NA,NA,NA,"?",0,1.217,1.664
"2317","calf","annoy",27,1.975,36,1,0,10,0.25,NA,NA,NA,NA,"?",0,0.597,1.454
"2346","chicken","beet",10,5.08,8,1,0,19,0.475,NA,NA,NA,NA,"skip",0,7.904,11.359
"2346","caring","skirt",45,4.479,6,1,1,32,0.8,NA,NA,NA,NA,"skirt",1,0.928,2.078
"2346","mill","feast",1,5.231,26,1,0,7,0.175,NA,NA,NA,NA,"otter",0,3.669,4.948
"2346","pork","emperor",19,11.878,9,1,1,24,0.6,NA,NA,NA,NA,"feud",0,7.132,8.307
"2346","climax","saucer",1,3.032,11,1,0,15,0.375,NA,NA,NA,NA,"skip",0,4.873,5.771
"2346","shrink","mafia",40,4.279,1,1,0,31,0.775,NA,NA,NA,NA,"mafia",1,5.433,7.12
"2346","fan","feature",65,12.2,7,1,1,38,0.95,NA,NA,NA,NA,"feature",1,1.171,2.592
"2346","capital","figure",1,3.232,25,1,1,10,0.25,NA,NA,NA,NA,"skip",0,1.265,2.182
"2346","plant","worm",15,4.272,5,1,0,23,0.575,NA,NA,NA,NA,"worm",1,2.135,4.127
"2346","prison","loaf",55,6.358,33,1,0,35,0.875,NA,NA,NA,NA,"skip",0,1.137,2.165
"2346","collect","loyalty",1,5.423,12,1,0,1,0.025,NA,NA,NA,NA,"skip",0,1.703,6.291
"2346","link","crisis",20,4.991,24,1,0,27,0.675,NA,NA,NA,NA,"crisis",1,1.412,3.061
"2346","bias","sirloin",10,8.727,4,1,1,20,0.5,NA,NA,NA,NA,"skip",0,1.541,2.639
"2346","visit","glove",1,3.452,36,1,1,12,0.3,NA,NA,NA,NA,"skip",0,1.268,3.902
"2346","calf","annoy",1,1.975,15,1,0,17,0.425,NA,NA,NA,NA,"knee",0,1.945,4.134
"2346","nerve","bumper",26,7.152,40,1,0,29,0.725,NA,NA,NA,NA,"bumper",1,3.849,5.906
"2346","bullet","walkway",65,6.759,30,1,0,39,0.975,NA,NA,NA,NA,"walkway",1,1.463,4.382
"2346","copy","bedroom",1,3.855,31,1,0,5,0.125,NA,NA,NA,NA,"skip",0,1.452,3.08
"2346","pea","bathtub",71,7.24,2,1,1,40,1,NA,NA,NA,NA,"skip",0,5.441,6.421
"2346","process","joker",1,4.677,37,1,1,16,0.4,NA,NA,NA,NA,"skip",0,3.266,5.194
"2346","remind","foam",1,3.544,39,1,1,4,0.1,NA,NA,NA,NA,"skip",0,1.189,8.443
"2346","rock","milk",15,5.609,28,1,1,22,0.55,NA,NA,NA,NA,"shoe",0,5.266,6.402
"2346","want","ascent",1,2.077,19,1,1,14,0.35,NA,NA,NA,NA,"skip",0,7.827,8.971
"2346","risk","zero",1,2.943,17,1,0,13,0.325,NA,NA,NA,NA,"table",0,10.415,12.496
"2346","date","laugh",20,3.864,10,1,1,26,0.65,NA,NA,NA,NA,"prune",0,5.483,6.577
"2346","bleach","ruin",20,4.816,34,1,0,25,0.625,NA,NA,NA,NA,"ruin",1,4.479,6.11
"2346","forest","knob",33,6.839,20,1,1,30,0.75,NA,NA,NA,NA,"knob",1,1.652,2.953
"2346","grip","beach",1,3.503,27,1,1,2,0.05,NA,NA,NA,NA,"skip",0,5.172,7.831
"2346","port","cinema",1,7.383,13,1,1,8,0.2,NA,NA,NA,NA,"bridge",0,1.374,2.738
"2346","smother","surgery",13,4.439,35,1,0,21,0.525,NA,NA,NA,NA,"injure",0,5.726,15.089
"2346","biology","temper",50,8.031,22,1,1,34,0.85,NA,NA,NA,NA,"temper",1,1.588,2.755
"2346","find","clown",1,3.711,18,1,0,9,0.225,NA,NA,NA,NA,"skip",0,3.316,5.903
"2346","need","faucet",1,2.408,21,1,1,18,0.45,NA,NA,NA,NA,"skip",0,5.525,7.88
"2346","bacon","feud",61,3.35,32,1,0,37,0.925,NA,NA,NA,NA,"feud",1,1.104,5.403
"2346","replace","roach",1,3.818,16,1,0,11,0.275,NA,NA,NA,NA,"magnet",0,2.828,4.434
"2346","anger","decay",25,18.343,38,1,1,28,0.7,NA,NA,NA,NA,"decay",1,1.474,2.598
"2346","fee","chowder",1,8.935,14,1,1,6,0.15,NA,NA,NA,NA,"skip",0,2.402,3.542
"2346","banner","glide",46,3.6,23,1,0,33,0.825,NA,NA,NA,NA,"glide",1,0.914,2.042
"2346","glue","force",60,5.232,3,1,1,36,0.9,NA,NA,NA,NA,"force",1,0.821,2.273
"2346","knock","otter",1,4.503,29,1,0,3,0.075,NA,NA,NA,NA,"skip",0,5.792,6.704
"2428","fan","feature",15,1.697,11,1,1,6,0.15,NA,NA,NA,NA,"man",0,2.857,3.488
"2428","replace","roach",100,3.935,25,1,1,32,0.8,NA,NA,NA,NA,"roach",1,2.619,3.419
"2428","process","joker",13,1.582,20,1,0,5,0.125,NA,NA,NA,NA,"info",0,1.781,2.352
"2428","smother","surgery",29,16.613,31,1,1,24,0.6,NA,NA,NA,NA,"surface",0,2.155,3.763
"2428","link","crisis",4,2.727,2,1,1,2,0.05,NA,NA,NA,NA,"oil",0,1.946,2.55
"2428","risk","zero",26,2.785,13,1,1,20,0.5,NA,NA,NA,NA,"taken",0,1.254,1.97
"2428","rock","milk",24,2.495,26,1,0,17,0.425,NA,NA,NA,NA,"paepr",0,1.509,2.113
"2428","port","cinema",100,4.716,4,1,0,35,0.875,NA,NA,NA,NA,"cinema",1,4.889,6.782
"2428","biology","temper",25,2.269,30,1,1,18,0.45,NA,NA,NA,NA,"rumors",0,4.504,5.401
"2428","visit","glove",27,3.089,1,1,1,22,0.55,NA,NA,NA,NA,"place",0,3.633,4.55
"2428","banner","glide",27,4.813,6,1,0,21,0.525,NA,NA,NA,NA,"health",0,1.24,1.934
"2428","bacon","feud",17,2.022,24,1,0,7,0.175,NA,NA,NA,NA,"sirslion",0,5.604,11.115
"2428","pork","emperor",23,2.116,17,1,0,15,0.375,NA,NA,NA,NA,"matter",0,2.753,3.601
"2428","collect","loyalty",100,4.12,12,1,0,31,0.775,NA,NA,NA,NA,"loyalt",0,1.681,2.683
"2428","grip","beach",100,2.196,36,1,1,34,0.85,NA,NA,NA,NA,"beach",1,4.638,8.461
"2428","plant","worm",33,2.483,21,1,1,26,0.65,NA,NA,NA,NA,"animal",0,1.383,2.389
"2428","bleach","ruin",100,2.945,39,1,1,28,0.7,NA,NA,NA,NA,"ruin",1,1.215,1.923
"2428","climax","saucer",17,3.423,8,1,1,8,0.2,NA,NA,NA,NA,"end",0,1.441,2.106
"2428","chicken","beet",7,1.558,32,1,0,3,0.075,NA,NA,NA,NA,"beet",1,1.399,2.117
"2428","remind","foam",100,3.645,34,1,0,29,0.725,NA,NA,NA,NA,"heal",0,4.214,5.372
"2428","capital","figure",20,5.396,19,1,1,10,0.25,NA,NA,NA,NA,"point",0,1.264,1.999
"2428","mill","feast",21,2.469,27,1,0,11,0.275,NA,NA,NA,NA,"run",0,4.076,5.282
"2428","shrink","mafia",32,10.27,35,1,0,25,0.625,NA,NA,NA,NA,"area",0,2.325,2.963
"2428","glue","force",100,5.616,10,1,1,38,0.95,NA,NA,NA,NA,"streched",0,1.516,3.57
"2428","want","ascent",12,2.919,33,1,1,4,0.1,NA,NA,NA,NA,"anmal",0,7.84,11.515
"2428","anger","decay",24,2.051,9,1,1,16,0.4,NA,NA,NA,NA,"done",0,2.409,2.968
"2428","caring","skirt",100,2.789,29,1,1,36,0.9,NA,NA,NA,NA,"skirt",1,1.931,2.769
"2428","bullet","walkway",100,2.872,40,1,0,33,0.825,NA,NA,NA,NA,"strip",0,2.613,3.628
"2428","copy","bedroom",100,3.294,38,1,1,40,1,NA,NA,NA,NA,"bedroom",1,1.351,2.585
"2428","date","laugh",100,3.181,37,1,0,27,0.675,NA,NA,NA,NA,"laug",0,4.012,4.718
"2428","forest","knob",100,1.798,28,1,0,37,0.925,NA,NA,NA,NA,"knob",1,2.792,3.402
"2428","pea","bathtub",100,2.77,3,1,1,30,0.75,NA,NA,NA,NA,"bathtub",1,3.17,4.983
"2428","prison","loaf",100,1.878,14,1,0,39,0.975,NA,NA,NA,NA,"loaf",1,1.686,2.332
"2428","knock","otter",26,3.719,15,1,0,19,0.475,NA,NA,NA,NA,"kick",0,5.448,6.1
"2428","need","faucet",21,1.951,23,1,1,12,0.3,NA,NA,NA,NA,"man",0,1.851,2.349
"2428","fee","chowder",1,1.749,16,1,0,1,0.025,NA,NA,NA,NA,"blast",0,1.39,3.45
"2428","nerve","bumper",23,1.487,18,1,0,13,0.325,NA,NA,NA,NA,"sand",0,2.093,3.932
"2428","bias","sirloin",19,2.483,7,1,0,9,0.225,NA,NA,NA,NA,"sirloin",1,3.235,5.343
"2428","calf","annoy",29,1.949,22,1,0,23,0.575,NA,NA,NA,NA,"need",0,2.592,3.441
"2428","find","clown",23,1.961,5,1,1,14,0.35,NA,NA,NA,NA,"man",0,1.414,1.833
"3046","link","crisis",100,3.342,27,1,1,36,0.9,NA,NA,NA,NA,"bridge",0,19.426,21.643
"3046","rock","milk",5,6.302,21,1,1,26,0.65,NA,NA,NA,NA,"base",0,62.404,63.286
"3046","chicken","beet",100,3.508,16,1,1,38,0.95,NA,NA,NA,NA,"beat",0,8.014,8.813
"3046","caring","skirt",1,3.153,28,1,1,16,0.4,NA,NA,NA,NA,"Can't recall.",0,25.232,32.077
"3046","capital","figure",5,6.359,19,1,0,27,0.675,NA,NA,NA,NA,"politcian",0,4.534,17.555
"3046","process","joker",1,3.582,29,1,1,14,0.35,NA,NA,NA,NA,"Can't recall.",0,7.041,7.91
"3046","nerve","bumper",1,2.273,17,1,1,8,0.2,NA,NA,NA,NA,"Can't recall.",0,10.499,11.007
"3046","fee","chowder",1,1.805,39,1,0,15,0.375,NA,NA,NA,NA,"Can't recall.",0,23.336,24.173
"3046","collect","loyalty",1,2.257,20,1,0,1,0.025,NA,NA,NA,NA,"Can't recall.",0,23.502,24.33
"3046","prison","loaf",100,3.69,11,1,0,35,0.875,NA,NA,NA,NA,"bread",0,12.073,13.186
"3046","smother","surgery",1,2.444,14,1,1,10,0.25,NA,NA,NA,NA,"Can't recall.",0,10.265,10.855
"3046","bacon","feud",1,3.841,1,1,1,12,0.3,NA,NA,NA,NA,"pig",0,6.56,7.095
"3046","port","cinema",1,6.104,32,1,0,23,0.575,NA,NA,NA,NA,"beach",0,4.679,5.406
"3046","calf","annoy",95,4.429,36,1,1,34,0.85,NA,NA,NA,NA,"annoy",1,1.838,2.725
"3046","remind","foam",1,1.54,2,1,1,18,0.45,NA,NA,NA,NA,"Can't recall.",0,4.17,4.641
"3046","shrink","mafia",1,3.567,13,1,0,13,0.325,NA,NA,NA,NA,"apple",0,11.943,12.848
"3046","pea","bathtub",95,4.613,9,1,0,33,0.825,NA,NA,NA,NA,"plate",0,10.528,11.379
"3046","plant","worm",1,1.82,33,1,1,20,0.5,NA,NA,NA,NA,"farm",0,6.725,7.412
"3046","pork","emperor",5,8.473,15,1,1,28,0.7,NA,NA,NA,NA,"politician",0,7.993,10.923
"3046","banner","glide",1,1.649,37,1,0,21,0.525,NA,NA,NA,NA,"wave",0,4.533,6.004
"3046","need","faucet",1,2.716,4,1,0,17,0.425,NA,NA,NA,NA,"Can't recall. ",0,1.617,7.759
"3046","biology","temper",4,4.709,8,1,1,24,0.6,NA,NA,NA,NA,"cell",0,3.441,4.521
"3046","glue","force",90,5.882,10,1,0,31,0.775,NA,NA,NA,NA,"strength",0,4.313,11.767
"3046","find","clown",1,1.935,7,1,0,19,0.475,NA,NA,NA,NA,"Can't recall.",0,1.745,3.209
"3046","want","ascent",1,1.679,31,1,0,9,0.225,NA,NA,NA,NA,"goal",0,3.67,4.318
"3046","knock","otter",90,8.813,26,1,1,32,0.8,NA,NA,NA,NA,"chicken",0,3.456,6.848
"3046","climax","saucer",100,5.312,34,1,0,39,0.975,NA,NA,NA,NA,"pan",0,10.425,11.016
"3046","fan","feature",100,2.412,18,1,1,40,1,NA,NA,NA,NA,"extra",0,2.561,4.519
"3046","copy","bedroom",1,2.227,24,1,0,3,0.075,NA,NA,NA,NA,"glue",0,2.201,8.58
"3046","date","laugh",1,1.605,38,1,0,5,0.125,NA,NA,NA,NA,"Can't recall.",0,1.375,2.364
"3046","forest","knob",100,3.519,6,1,0,37,0.925,NA,NA,NA,NA,"stump",0,7.16,8.472
"3046","risk","zero",1,2.949,30,1,1,22,0.55,NA,NA,NA,NA,"Can't recall.",0,1.928,2.622
"3046","bleach","ruin",1,2.899,5,1,1,4,0.1,NA,NA,NA,NA,"stain",0,5.439,8.238
"3046","bias","sirloin",1,1.497,22,1,0,11,0.275,NA,NA,NA,NA,"Can't recall.",0,3.551,4.608
"3046","mill","feast",4,4.067,3,1,0,25,0.625,NA,NA,NA,NA,"farm",0,3.922,8.983
"3046","grip","beach",20,5.443,35,1,1,30,0.75,NA,NA,NA,NA,"glue",0,2.859,3.641
"3046","visit","glove",1,2.413,23,1,1,6,0.15,NA,NA,NA,NA,"Can't recall.",0,2.45,3.049
"3046","anger","decay",1,4.492,40,1,1,2,0.05,NA,NA,NA,NA,"Can't recall.",0,5.328,5.976
"3046","bullet","walkway",1,1.646,12,1,0,7,0.175,NA,NA,NA,NA,"prison",0,3.918,4.975
"3046","replace","roach",10,6.5,25,1,0,29,0.725,NA,NA,NA,NA,"Can't recall.",0,3.444,4.206
"3166","rock","milk",60,12.346,26,1,0,31,0.775,NA,NA,NA,NA,"milk",1,6.773,9.206
"3166","risk","zero",1,2.237,12,1,0,19,0.475,NA,NA,NA,NA,"zero",1,1.892,4.207
"3166","visit","glove",1,2.019,32,1,1,12,0.3,NA,NA,NA,NA,"hell",0,4.001,6.127
"3166","grip","beach",1,2.096,11,1,1,22,0.55,NA,NA,NA,NA,"meter",0,2.435,4.558
"3166","chicken","beet",51,5.023,10,1,1,28,0.7,NA,NA,NA,NA,"beets",0,2.683,4.773
"3166","find","clown",1,2.63,35,1,1,8,0.2,NA,NA,NA,NA,"skip",0,2.099,6.6
"3166","want","ascent",1,4.677,13,1,0,5,0.125,NA,NA,NA,NA,"skip",0,1.794,3.141
"3166","biology","temper",1,2.527,19,1,1,2,0.05,NA,NA,NA,NA,"skip",0,1.292,2.192
"3166","banner","glide",1,2.53,36,1,0,13,0.325,NA,NA,NA,NA,"skip",0,1.565,2.227
"3166","pork","emperor",95,5.961,23,1,0,39,0.975,NA,NA,NA,NA,"emperor",1,1.854,5.253
"3166","remind","foam",1,1.998,21,1,1,10,0.25,NA,NA,NA,NA,"skip",0,1.632,2.291
"3166","bacon","feud",1,2.788,3,1,1,6,0.15,NA,NA,NA,NA,"skip",0,1.9,2.483
"3166","link","crisis",50,10.905,4,1,0,27,0.675,NA,NA,NA,NA,"cyclone",0,6.58,9.797
"3166","bias","sirloin",1,2.108,15,1,0,11,0.275,NA,NA,NA,NA,"skip",0,1.693,2.253
"3166","port","cinema",1,3.704,24,1,0,7,0.175,NA,NA,NA,NA,"skip",0,1.284,1.955
"3166","nerve","bumper",1,3.355,2,1,0,23,0.575,NA,NA,NA,NA,"skip",0,1.925,2.843
"3166","process","joker",1,3.541,25,1,0,9,0.225,NA,NA,NA,NA,"skip",0,1.103,1.601
"3166","capital","figure",1,3.565,27,1,1,26,0.65,NA,NA,NA,NA,"skip",0,1.446,2.513
"3166","collect","loyalty",1,2.546,5,1,0,17,0.425,NA,NA,NA,NA,"skip",0,1.472,2.106
"3166","bullet","walkway",96,9.219,14,1,1,40,1,NA,NA,NA,NA,"walkway",1,1.781,4.571
"3166","replace","roach",1,2.272,22,1,1,4,0.1,NA,NA,NA,NA,"skip",0,1.186,2.083
"3166","calf","annoy",55,4.267,9,1,0,29,0.725,NA,NA,NA,NA,"fear",0,2.839,5.504
"3166","climax","saucer",95,10.729,37,1,1,38,0.95,NA,NA,NA,NA,"saucer",1,9.966,12.291
"3166","anger","decay",1,2.596,31,1,0,15,0.375,NA,NA,NA,NA,"skip",0,1.324,2.205
"3166","copy","bedroom",76,5.442,28,1,1,36,0.9,NA,NA,NA,NA,"bedroom",1,1.036,6.85
"3166","pea","bathtub",59,3.15,34,1,1,30,0.75,NA,NA,NA,NA,"bathtub",1,3.281,5.857
"3166","mill","feast",1,2.328,29,1,1,20,0.5,NA,NA,NA,NA,"skip",0,1.297,1.918
"3166","shrink","mafia",1,4.329,39,1,0,1,0.025,NA,NA,NA,NA,"skip",0,1.555,2.084
"3166","caring","skirt",70,5.679,16,1,0,33,0.825,NA,NA,NA,NA,"skirt",1,1.9,4.179
"3166","glue","force",1,2.354,17,1,0,25,0.625,NA,NA,NA,NA,"skip",0,1.144,1.715
"3166","knock","otter",1,2.611,33,1,0,3,0.075,NA,NA,NA,NA,"skip",0,1.129,1.829
"3166","fee","chowder",1,2.473,18,1,1,16,0.4,NA,NA,NA,NA,"skip",0,0.911,1.759
"3166","prison","loaf",70,4.61,38,1,0,35,0.875,NA,NA,NA,NA,"skip",0,1.502,7.694
"3166","fan","feature",1,2.006,6,1,1,24,0.6,NA,NA,NA,NA,"skip",0,1.052,1.701
"3166","need","faucet",80,6.187,8,1,0,37,0.925,NA,NA,NA,NA,"faucet",1,1.479,3.72
"3166","smother","surgery",65,4.141,40,1,1,32,0.8,NA,NA,NA,NA,"surgery",1,9.291,13.129
"3166","plant","worm",1,2.345,20,1,1,18,0.45,NA,NA,NA,NA,"skip",0,1.14,1.748
"3166","forest","knob",1,2.432,1,1,0,21,0.525,NA,NA,NA,NA,"skip",0,1.007,1.674
"3166","date","laugh",1,2.543,30,1,1,14,0.35,NA,NA,NA,NA,"skip",0,1.098,2.675
"3166","bleach","ruin",70,6.13,7,1,1,34,0.85,NA,NA,NA,NA,"skip",0,4.049,4.993
"3246","link","crisis",59,3.379,25,1,0,35,0.875,NA,NA,NA,NA,"Skip",0,6.539,11.383
"3246","banner","glide",19,3.642,22,1,0,29,0.725,NA,NA,NA,NA,"Skip",0,2.321,4.774
"3246","rock","milk",40,3.76,1,1,0,33,0.825,NA,NA,NA,NA,"hill",0,10.178,12.008
"3246","chicken","beet",6,3.154,6,1,1,22,0.55,NA,NA,NA,NA,"skip",0,2.703,4.561
"3246","climax","saucer",1,3.25,2,1,1,10,0.25,NA,NA,NA,NA,"skip",0,1.951,3.742
"3246","capital","figure",78,3.94,3,1,1,36,0.9,NA,NA,NA,NA,"position ",0,4.24,12.136
"3246","fee","chowder",1,3.025,33,1,0,13,0.325,NA,NA,NA,NA,"skip",0,2.487,5.512
"3246","pork","emperor",100,3.594,39,1,0,39,0.975,NA,NA,NA,NA,"majesty",0,14.32,19.917
"3246","copy","bedroom",1,2.794,15,1,1,12,0.3,NA,NA,NA,NA,"skirt",0,1.791,8.954
"3246","shrink","mafia",1,3.154,21,1,1,8,0.2,NA,NA,NA,NA,"skip",0,2.965,5.035
"3246","calf","annoy",1,5.198,7,1,1,6,0.15,NA,NA,NA,NA,"skip",0,3.288,5.253
"3246","grip","beach",24,9.421,12,1,1,30,0.75,NA,NA,NA,NA,"mountain",0,1.971,4.513
"3246","caring","skirt",1,3.002,28,1,0,11,0.275,NA,NA,NA,NA,"skip",0,2.466,4.962
"3246","bias","sirloin",1,3.06,38,1,1,2,0.05,NA,NA,NA,NA,"cut",0,9.054,10.54
"3246","nerve","bumper",6,4.053,13,1,0,21,0.525,NA,NA,NA,NA,"skip",0,1.871,3.862
"3246","forest","knob",25,2.899,5,1,0,31,0.775,NA,NA,NA,NA,"pillar",0,17.786,22.048
"3246","visit","glove",1,4.572,11,1,0,5,0.125,NA,NA,NA,NA,"skip",0,1.686,3.535
"3246","smother","surgery",11,10.503,16,1,1,24,0.6,NA,NA,NA,NA,"surgery",1,1.815,4.285
"3246","process","joker",1,2.682,8,1,1,4,0.1,NA,NA,NA,NA,"skip",0,2.698,4.436
"3246","replace","roach",9,4.331,24,1,0,23,0.575,NA,NA,NA,NA,"skip",0,2.597,4.331
"3246","need","faucet",1,3.015,27,1,1,18,0.45,NA,NA,NA,NA,"bacon",0,2.297,4.198
"3246","prison","loaf",1,5.341,40,1,0,1,0.025,NA,NA,NA,NA,"skip",0,1.425,3.869
"3246","find","clown",15,3.444,9,1,0,27,0.675,NA,NA,NA,NA,"skip",0,2.323,4.454
"3246","remind","foam",1,3.122,37,1,1,16,0.4,NA,NA,NA,NA,"skip",0,4.763,6.658
"3246","port","cinema",1,2.529,34,1,0,3,0.075,NA,NA,NA,NA,"ship",0,3.096,5.16
"3246","mill","feast",1,2.866,14,1,0,17,0.425,NA,NA,NA,NA,"Forrest ",0,4.445,10.721
"3246","anger","decay",11,3.875,10,1,0,25,0.625,NA,NA,NA,NA,"biology",0,3.321,8.832
"3246","risk","zero",1,2.64,20,1,0,15,0.375,NA,NA,NA,NA,"zero",1,3.607,7.919
"3246","biology","temper",42,3.906,35,1,1,34,0.85,NA,NA,NA,NA,"Anger",0,2.52,5.121
"3246","bleach","ruin",100,3.498,4,1,0,37,0.925,NA,NA,NA,NA,"ruin",1,2.182,4.712
"3246","want","ascent",1,2.746,29,1,1,14,0.35,NA,NA,NA,NA,"skip",0,1.788,3.79
"3246","glue","force",17,5.926,26,1,1,28,0.7,NA,NA,NA,NA,"skip",0,1.485,3.613
"3246","date","laugh",1,2.616,18,1,1,20,0.5,NA,NA,NA,NA,"skip",0,1.6,3.389
"3246","fan","feature",1,3.019,36,1,0,7,0.175,NA,NA,NA,NA,"spring",0,7.247,10.803
"3246","bacon","feud",100,4.052,19,1,1,38,0.95,NA,NA,NA,NA,"heist ",0,4.107,10.819
"3246","pea","bathtub",13,3.401,32,1,1,26,0.65,NA,NA,NA,NA,"skip",0,4.234,6.492
"3246","plant","worm",100,3.427,23,1,1,40,1,NA,NA,NA,NA,"worm",1,10.349,12.722
"3246","bullet","walkway",32,4.556,31,1,1,32,0.8,NA,NA,NA,NA,"skip",0,1.671,4.063
"3246","knock","otter",1,3.34,30,1,0,9,0.225,NA,NA,NA,NA,"skip",0,2.184,4.223
"3246","collect","loyalty",1,2.379,17,1,0,19,0.475,NA,NA,NA,NA,"skip",0,3.053,5.015
"3385","caring","skirt",50,2.031,11,1,0,14,0.35,NA,NA,NA,NA,"pea",0,10.393,12.279
"3385","collect","loyalty",50,2.856,13,1,1,7,0.175,NA,NA,NA,NA,"pork",0,6.597,8.39
"3385","climax","saucer",50,2.358,38,1,0,16,0.4,NA,NA,NA,NA,"bacon",0,14.789,17.16
"3385","find","clown",50,4.337,4,1,1,19,0.475,NA,NA,NA,NA,"forest",0,2.744,5.143
"3385","remind","foam",50,2.704,8,1,1,29,0.725,NA,NA,NA,NA,"emperor",0,8.55,11.975
"3385","want","ascent",50,3.117,15,1,1,21,0.525,NA,NA,NA,NA,"milk",0,5.315,7.263
"3385","chicken","beet",50,5.253,27,1,0,30,0.75,NA,NA,NA,NA,"mill",0,8.006,9.655
"3385","calf","annoy",50,3.02,23,1,0,36,0.9,NA,NA,NA,NA,"annoy",1,5.436,7.279
"3385","capital","figure",50,2.551,5,1,1,9,0.225,NA,NA,NA,NA,"forest",0,15.711,17.727
"3385","smother","surgery",50,3.896,32,1,0,4,0.1,NA,NA,NA,NA,"hospital",0,20.6,23.951
"3385","bacon","feud",50,2.828,37,1,0,26,0.65,NA,NA,NA,NA,"turn",0,12.021,15.28
"3385","bias","sirloin",50,4.646,17,1,0,20,0.5,NA,NA,NA,NA,"grow",0,3.187,5.296
"3385","replace","roach",50,4.19,1,1,1,17,0.425,NA,NA,NA,NA,"water",0,5.839,7.791
"3385","link","crisis",50,6.215,21,1,0,18,0.45,NA,NA,NA,NA,"pea",0,6.155,7.903
"3385","fee","chowder",50,2.785,6,1,0,32,0.8,NA,NA,NA,NA,"change",0,8.205,10.344
"3385","anger","decay",50,3.18,34,1,1,37,0.925,NA,NA,NA,NA,"bacon",0,5.207,7.416
"3385","shrink","mafia",50,2.792,31,1,0,6,0.15,NA,NA,NA,NA,"forest",0,2.875,4.792
"3385","need","faucet",50,4.313,40,1,0,22,0.55,NA,NA,NA,NA,"milk",0,2.462,4.527
"3385","risk","zero",50,3.977,3,1,1,35,0.875,NA,NA,NA,NA,"forest",0,9.775,12.191
"3385","knock","otter",50,10.764,2,1,1,1,0.025,NA,NA,NA,NA,"chicken",0,7.062,9.807
"3385","pork","emperor",50,3.435,19,1,0,28,0.7,NA,NA,NA,NA,"emperor",1,1.74,4.472
"3385","process","joker",50,3.753,9,1,1,25,0.625,NA,NA,NA,NA,"mill",0,15.88,20.678
"3385","bullet","walkway",50,2.67,7,1,0,24,0.6,NA,NA,NA,NA,"paper",0,15.287,17.591
"3385","copy","bedroom",50,234.342,12,1,1,33,0.825,NA,NA,NA,NA,"milk",0,13.331,15.304
"3385","mill","feast",50,5.15,24,1,0,2,0.05,NA,NA,NA,NA,"pea",0,8.248,9.655
"3385","prison","loaf",50,2.684,30,1,1,23,0.575,NA,NA,NA,NA,"sirloin",0,10.843,14.231
"3385","plant","worm",50,2.111,20,1,1,13,0.325,NA,NA,NA,NA,"milk",0,3.809,5.671
"3385","grip","beach",50,3.022,33,1,1,31,0.775,NA,NA,NA,NA,"forest",0,8.489,11.24
"3385","port","cinema",50,2.584,36,1,0,12,0.3,NA,NA,NA,NA,"milk",0,3.956,5.751
"3385","glue","force",50,3.248,28,1,0,8,0.2,NA,NA,NA,NA,"forest",0,4.273,49.951
"3385","forest","knob",50,4.368,25,1,1,5,0.125,NA,NA,NA,NA,"sirloin",0,4.489,6.904
"3385","visit","glove",50,3.054,10,1,1,39,0.975,NA,NA,NA,NA,"prison ",0,2.029,8.024
"3385","fan","feature",50,2.08,29,1,0,10,0.25,NA,NA,NA,NA,"climax",0,10.706,13.368
"3385","rock","milk",50,5.902,14,1,0,34,0.85,NA,NA,NA,NA,"milk",1,2.739,4.488
"3385","pea","bathtub",50,4.678,26,1,1,3,0.075,NA,NA,NA,NA,"forest",0,4.711,7.199
"3385","date","laugh",50,3.604,22,1,0,38,0.95,NA,NA,NA,NA,"mill",0,11.716,12.855
"3385","nerve","bumper",50,2.199,35,1,1,11,0.275,NA,NA,NA,NA,"tomato",0,3.202,5.936
"3385","bleach","ruin",50,2.647,39,1,1,15,0.375,NA,NA,NA,NA,"milk",0,1.909,3.159
"3385","biology","temper",50,2.647,18,1,0,40,1,NA,NA,NA,NA,"sirloin",0,5.329,11.936
"3385","banner","glide",50,2.668,16,1,1,27,0.675,NA,NA,NA,NA,"pea",0,4.575,5.96
"3630","want","ascent",2,2.758,26,1,0,3,0.075,NA,NA,NA,NA,"ascent",1,7.591,10.189
"3630","calf","annoy",21,4.096,5,1,1,18,0.45,NA,NA,NA,NA,"skip",0,3.881,4.856
"3630","mill","feast",28,6.073,16,1,0,25,0.625,NA,NA,NA,NA,"feast",1,3.655,4.854
"3630","knock","otter",42,5.207,27,1,1,28,0.7,NA,NA,NA,NA,"rock",0,7.312,8.135
"3630","chicken","beet",74,2.399,14,1,0,37,0.925,NA,NA,NA,NA,"beet",1,18.423,20.101
"3630","nerve","bumper",66,3.103,18,1,1,34,0.85,NA,NA,NA,NA,"dj",0,6.21,6.649
"3630","process","joker",26,3.416,7,1,1,24,0.6,NA,NA,NA,NA,"skip",0,13.967,15.375
"3630","caring","skirt",22,5.863,28,1,1,20,0.5,NA,NA,NA,NA,"cost",0,8.589,11.603
"3630","bullet","walkway",77,3.036,23,1,1,38,0.95,NA,NA,NA,NA,"calf",0,20.504,21.351
"3630","forest","knob",20,15.168,40,1,0,15,0.375,NA,NA,NA,NA,"find",0,5.248,6.127
"3630","need","faucet",26,4.127,24,1,0,23,0.575,NA,NA,NA,NA,"faucet",1,3.169,5.095
"3630","visit","glove",17,3.84,22,1,0,13,0.325,NA,NA,NA,NA,"glove",1,3.191,4.231
"3630","fee","chowder",58,5.985,6,1,0,33,0.825,NA,NA,NA,NA,"chowder",1,9.631,20.377
"3630","collect","loyalty",54,4.086,13,1,0,31,0.775,NA,NA,NA,NA,"counsel",0,2.655,7.607
"3630","bias","sirloin",67,4.073,2,1,1,36,0.9,NA,NA,NA,NA,"beach",0,7.009,7.935
"3630","glue","force",1,4.04,3,1,1,2,0.05,NA,NA,NA,NA,"glove",0,2.192,3.335
"3630","replace","roach",20,2.68,38,1,0,17,0.425,NA,NA,NA,NA,"roach",1,16.096,17.263
"3630","bacon","feud",79,2.528,19,1,0,39,0.975,NA,NA,NA,NA,"feud",1,3.297,4.736
"3630","date","laugh",22,2.684,33,1,0,19,0.475,NA,NA,NA,NA,"laugh",1,5.232,6.232
"3630","biology","temper",8,3.295,36,1,1,6,0.15,NA,NA,NA,NA,"bullet",0,2.848,3.991
"3630","climax","saucer",14,3.216,12,1,1,12,0.3,NA,NA,NA,NA,"caring",0,11.45,18.193
"3630","shrink","mafia",5,5.41,30,1,1,4,0.1,NA,NA,NA,NA,"skip",0,4.656,5.43
"3630","fan","feature",41,3.505,39,1,0,27,0.675,NA,NA,NA,NA,"feature",1,7.96,10.695
"3630","prison","loaf",54,4.671,37,1,1,30,0.75,NA,NA,NA,NA,"skip",0,10.839,11.631
"3630","anger","decay",43,3.358,20,1,0,29,0.725,NA,NA,NA,NA,"skip",0,8.19,9.67
"3630","smother","surgery",67,4.039,11,1,0,35,0.875,NA,NA,NA,NA,"skip",0,25.061,25.932
"3630","copy","bedroom",34,3.342,32,1,1,26,0.65,NA,NA,NA,NA,"cost",0,5.151,6.143
"3630","remind","foam",13,5.247,10,1,0,9,0.225,NA,NA,NA,NA,"foam",1,3.111,4.038
"3630","rock","milk",24,3.607,34,1,1,22,0.55,NA,NA,NA,NA,"skip",0,5.016,5.808
"3630","pea","bathtub",20,3.974,4,1,1,16,0.4,NA,NA,NA,NA,"pie",0,12.735,13.43
"3630","capital","figure",14,2.59,31,1,0,11,0.275,NA,NA,NA,NA,"figure",1,2.679,4.078
"3630","plant","worm",55,4.648,29,1,1,32,0.8,NA,NA,NA,NA,"cannabis",0,3.119,4.75
"3630","bleach","ruin",79,2.471,9,1,1,40,1,NA,NA,NA,NA,"blonde",0,3.567,5.479
"3630","banner","glide",6,5.392,15,1,0,5,0.125,NA,NA,NA,NA,"skip",0,2.351,5.23
"3630","pork","emperor",18,3.2,21,1,1,14,0.35,NA,NA,NA,NA,"skip",0,8.474,9.377
"3630","link","crisis",22,3.48,25,1,0,21,0.525,NA,NA,NA,NA,"crisis",1,19.952,21.734
"3630","find","clown",14,2.711,1,1,1,10,0.25,NA,NA,NA,NA,"fill",0,10.648,11.447
"3630","risk","zero",11,3.552,8,1,1,8,0.2,NA,NA,NA,NA,"skip",0,11.224,12.15
"3630","grip","beach",9,2.983,35,1,0,7,0.175,NA,NA,NA,NA,"skip",0,3.616,4.552
"3630","port","cinema",1,4.191,17,1,0,1,0.025,NA,NA,NA,NA,"skip",0,6.992,7.975
"4168","pea","bathtub",89,3.544,15,1,1,38,0.95,NA,NA,NA,NA,"bathtub",1,2.099,4.486
"4168","fan","feature",61,4.903,7,1,1,24,0.6,NA,NA,NA,NA,"feature",1,1.297,2.942
"4168","grip","beach",35,3.518,4,1,1,16,0.4,NA,NA,NA,NA,"strength",0,1.619,4.343
"4168","find","clown",55,3.033,22,1,1,20,0.5,NA,NA,NA,NA,"beach",0,1.686,3.188
"4168","chicken","beet",56,2.079,34,1,0,21,0.525,NA,NA,NA,NA,"soup",0,2.927,4.812
"4168","copy","bedroom",63,2.301,8,1,0,27,0.675,NA,NA,NA,NA,"list",0,3.757,5.043
"4168","need","faucet",8,2.645,16,1,1,12,0.3,NA,NA,NA,NA,"ascent",0,1.592,4.226
"4168","want","ascent",1,2.645,2,1,0,1,0.025,NA,NA,NA,NA,"ascent",1,1.065,2.949
"4168","bias","sirloin",1,2.511,29,1,0,3,0.075,NA,NA,NA,NA,"sirloin",1,12.101,15.761
"4168","collect","loyalty",63,2.36,18,1,1,28,0.7,NA,NA,NA,NA,"reward",0,1.799,3.2
"4168","forest","knob",83,2.275,5,1,0,37,0.925,NA,NA,NA,NA,"knob",1,1.951,3.891
"4168","caring","skirt",1,1.928,28,1,1,10,0.25,NA,NA,NA,NA,"love",0,2.274,3.547
"4168","date","laugh",82,2.316,3,1,1,36,0.9,NA,NA,NA,NA,"laughter",0,1.427,3.123
"4168","plant","worm",65,2.194,31,1,0,31,0.775,NA,NA,NA,NA,"biology",0,2.599,4.842
"4168","calf","annoy",58,4.049,20,1,1,22,0.55,NA,NA,NA,NA,"annoy",1,1.171,2.777
"4168","shrink","mafia",1,2.312,26,1,1,6,0.15,NA,NA,NA,NA,"clown",0,1.924,3.476
"4168","nerve","bumper",14,3.181,32,1,0,13,0.325,NA,NA,NA,NA,"bumper",1,2.803,5.407
"4168","glue","force",25,5.466,38,1,1,14,0.35,NA,NA,NA,NA,"stuck",0,2.511,3.979
"4168","rock","milk",78,2.728,21,1,1,34,0.85,NA,NA,NA,NA,"milk",1,1.37,2.837
"4168","fee","chowder",1,2.65,37,1,0,11,0.275,NA,NA,NA,NA,"feud",0,2.685,4.136
"4168","prison","loaf",91,3.257,36,1,0,39,0.975,NA,NA,NA,NA,"loaf",1,2.275,3.514
"4168","visit","glove",1,3.095,25,1,1,4,0.1,NA,NA,NA,NA,"beach",0,6.128,7.957
"4168","mill","feast",1,2.118,14,1,0,5,0.125,NA,NA,NA,NA,"feud",0,6.606,8.026
"4168","smother","surgery",35,3.533,6,1,0,17,0.425,NA,NA,NA,NA,"torture",0,4.282,6.015
"4168","climax","saucer",1,2.083,12,1,1,8,0.2,NA,NA,NA,NA,"clown",0,1.311,2.839
"4168","replace","roach",34,4.028,33,1,0,15,0.375,NA,NA,NA,NA,"money",0,3.849,5.397
"4168","remind","foam",1,2.905,10,1,1,2,0.05,NA,NA,NA,NA,"replace",0,1.259,3.237
"4168","bacon","feud",1,2.117,13,1,0,9,0.225,NA,NA,NA,NA,"pig",0,2.947,4.514
"4168","anger","decay",73,2.781,30,1,0,33,0.825,NA,NA,NA,NA,"irony",0,14.055,15.707
"4168","risk","zero",100,2.427,35,1,1,40,1,NA,NA,NA,NA,"zero",1,1.386,2.932
"4168","link","crisis",61,2.774,9,1,0,25,0.625,NA,NA,NA,NA,"visit",0,2.902,4.446
"4168","bullet","walkway",60,1.961,39,1,0,23,0.575,NA,NA,NA,NA,"paper",0,2.108,3.364
"4168","process","joker",64,2.414,17,1,1,30,0.75,NA,NA,NA,NA,"joker",1,1.805,3.266
"4168","bleach","ruin",70,2.947,11,1,1,32,0.8,NA,NA,NA,NA,"ruin",1,1.656,3.281
"4168","pork","emperor",81,2.517,24,1,0,35,0.875,NA,NA,NA,NA,"emperor",1,2.211,4.561
"4168","biology","temper",1,2.154,1,1,0,7,0.175,NA,NA,NA,NA,"crazy",0,6.785,9.225
"4168","knock","otter",39,2.766,23,1,1,18,0.45,NA,NA,NA,NA,"forest",0,1.689,3.019
"4168","port","cinema",44,2.683,19,1,0,19,0.475,NA,NA,NA,NA,"cinema",1,2.054,3.807
"4168","capital","figure",63,2.36,27,1,0,29,0.725,NA,NA,NA,NA,"figure",1,9.903,11.349
"4168","banner","glide",61,2.518,40,1,1,26,0.65,NA,NA,NA,NA,"glide",1,2.124,3.782
"4301","anger","decay",13,1.613,24,1,0,10,0.25,NA,NA,NA,NA,"skip",0,2.635,4.979
"4301","fan","feature",42,2.798,15,1,1,33,0.825,NA,NA,NA,NA,"skip",0,1.521,1.941
"4301","smother","surgery",37,2.278,33,1,1,31,0.775,NA,NA,NA,NA,"shoulder",0,2.076,3.644
"4301","risk","zero",76,1.989,14,1,1,39,0.975,NA,NA,NA,NA,"zero",1,1.09,2.8
"4301","bacon","feud",19,4.175,21,1,0,22,0.55,NA,NA,NA,NA,"feud",1,2.218,7.685
"4301","bleach","ruin",11,1.652,29,1,0,8,0.2,NA,NA,NA,NA,"clean",0,13.326,15.151
"4301","glue","force",6,1.587,31,1,0,2,0.05,NA,NA,NA,NA,"skip",0,14.466,15.662
"4301","nerve","bumper",13,1.74,26,1,1,13,0.325,NA,NA,NA,NA,"skip",0,1.553,2.094
"4301","visit","glove",16,1.476,17,1,0,18,0.45,NA,NA,NA,NA,"skip",0,1.195,1.582
"4301","collect","loyalty",7,1.771,22,1,1,3,0.075,NA,NA,NA,NA,"skip",0,0.921,1.31
"4301","bullet","walkway",10,2.356,30,1,0,6,0.15,NA,NA,NA,NA,"skip",0,1.788,2.478
"4301","want","ascent",11,1.496,9,1,1,9,0.225,NA,NA,NA,NA,"skip",0,1.768,2.18
"4301","rock","milk",14,1.501,34,1,1,15,0.375,NA,NA,NA,NA,"skip",0,2.202,2.694
"4301","banner","glide",58,2.118,12,1,1,35,0.875,NA,NA,NA,NA,"glide",1,2.097,3.567
"4301","date","laugh",65,2.898,36,1,0,38,0.95,NA,NA,NA,NA,"skip",0,3.148,3.805
"4301","grip","beach",63,2.516,5,1,1,37,0.925,NA,NA,NA,NA,"beach",1,1.201,3.903
"4301","chicken","beet",33,7.695,39,1,0,30,0.75,NA,NA,NA,NA,"beet",1,14.656,16.002
"4301","plant","worm",57,2.596,25,1,0,34,0.85,NA,NA,NA,NA,"skip",0,7.481,8.101
"4301","process","joker",14,1.381,13,1,0,16,0.4,NA,NA,NA,NA,"skip",0,1.41,1.759
"4301","prison","loaf",13,1.565,28,1,0,12,0.3,NA,NA,NA,NA,"junk",0,10.351,12.549
"4301","mill","feast",16,1.907,8,1,1,19,0.475,NA,NA,NA,NA,"skip",0,2.43,3.39
"4301","bias","sirloin",23,1.67,16,1,1,25,0.625,NA,NA,NA,NA,"skip",0,1.515,1.846
"4301","calf","annoy",2,4.398,32,1,1,1,0.025,NA,NA,NA,NA,"skip",0,2.15,3.015
"4301","shrink","mafia",15,1.654,7,1,1,17,0.425,NA,NA,NA,NA,"skip",0,1.45,1.823
"4301","find","clown",21,1.654,11,1,0,24,0.6,NA,NA,NA,NA,"skip",0,0.911,1.333
"4301","replace","roach",7,2.837,20,1,0,4,0.1,NA,NA,NA,NA,"skip",0,1.125,1.517
"4301","pork","emperor",81,2.235,38,1,0,40,1,NA,NA,NA,NA,"emperor",1,2.486,5.11
"4301","climax","saucer",14,1.661,1,1,0,14,0.35,NA,NA,NA,NA,"skip",0,1.174,1.814
"4301","copy","bedroom",13,1.53,18,1,1,11,0.275,NA,NA,NA,NA,"skip",0,0.924,1.517
"4301","link","crisis",21,1.821,40,1,1,23,0.575,NA,NA,NA,NA,"skip",0,1.857,2.175
"4301","pea","bathtub",9,2.156,3,1,1,5,0.125,NA,NA,NA,NA,"skip",0,1.763,2.176
"4301","forest","knob",18,1.765,37,1,0,20,0.5,NA,NA,NA,NA,"skip",0,4.656,5.004
"4301","fee","chowder",19,1.598,4,1,1,21,0.525,NA,NA,NA,NA,"skip",0,1.968,2.59
"4301","port","cinema",24,1.974,10,1,0,26,0.65,NA,NA,NA,NA,"skip",0,3.826,4.942
"4301","capital","figure",27,2.201,2,1,1,27,0.675,NA,NA,NA,NA,"skip",0,1.655,2.021
"4301","need","faucet",32,1.852,35,1,1,29,0.725,NA,NA,NA,NA,"skip",0,0.898,1.272
"4301","caring","skirt",10,1.454,6,1,1,7,0.175,NA,NA,NA,NA,"skip",0,1.339,1.661
"4301","remind","foam",60,2.752,27,1,0,36,0.9,NA,NA,NA,NA,"foam",1,3.247,4.908
"4301","knock","otter",31,2.045,19,1,0,28,0.7,NA,NA,NA,NA,"skip",0,1.539,2.125
"4301","biology","temper",39,2.572,23,1,0,32,0.8,NA,NA,NA,NA,"skip",0,1.105,1.437
"4575","anger","decay",61,2.834,26,1,0,24,0.6,NA,NA,NA,NA,"climax",0,6.109,9.57
"4575","link","crisis",17,1.884,34,1,0,12,0.3,NA,NA,NA,NA,"process",0,4.682,6.44
"4575","remind","foam",80,3.58,29,1,0,34,0.85,NA,NA,NA,NA," ",0,2.88,3.868
"4575","fee","chowder",34,2.156,7,1,0,18,0.45,NA,NA,NA,NA," ",0,13.324,14.558
"4575","process","joker",1,2.424,18,1,1,5,0.125,NA,NA,NA,NA," ",0,1.225,1.535
"4575","pea","bathtub",75,2.766,31,1,0,32,0.8,NA,NA,NA,NA,"bathroom",0,2.606,5.402
"4575","visit","glove",1,3.77,3,1,0,4,0.1,NA,NA,NA,NA," ",0,7.748,8.348
"4575","biology","temper",35,2.129,40,1,1,19,0.475,NA,NA,NA,NA," ",0,1.423,1.881
"4575","bacon","feud",65,2.775,2,1,1,27,0.675,NA,NA,NA,NA," ",0,2.822,3.173
"4575","climax","saucer",100,2.491,16,1,1,37,0.925,NA,NA,NA,NA," ",0,2.231,2.583
"4575","mill","feast",18,2.958,23,1,1,13,0.325,NA,NA,NA,NA," ",0,1.264,1.607
"4575","find","clown",1,2.415,36,1,1,1,0.025,NA,NA,NA,NA," ",0,1.156,1.534
"4575","glue","force",26,2.705,5,1,1,17,0.425,NA,NA,NA,NA," ",0,1.166,1.522
"4575","copy","bedroom",1,2.528,8,1,0,2,0.05,NA,NA,NA,NA," ",0,1.231,1.555
"4575","prison","loaf",76,3.499,15,1,1,33,0.825,NA,NA,NA,NA,"loaf",1,1.592,3.116
"4575","nerve","bumper",12,2.181,39,1,1,9,0.225,NA,NA,NA,NA," ",0,1.008,1.351
"4575","rock","milk",8,1.932,24,1,0,8,0.2,NA,NA,NA,NA,"milk",1,2.785,4.523
"4575","shrink","mafia",100,1.765,37,1,0,40,1,NA,NA,NA,NA,"mafia",1,1.871,3.48
"4575","replace","roach",16,2.126,22,1,1,11,0.275,NA,NA,NA,NA," ",0,1.203,1.565
"4575","capital","figure",49,2.308,19,1,1,21,0.525,NA,NA,NA,NA," ",0,1.421,1.978
"4575","port","cinema",1,1.963,38,1,0,6,0.15,NA,NA,NA,NA," ",0,1.648,2.045
"4575","calf","annoy",69,1.928,1,1,1,29,0.725,NA,NA,NA,NA," ",0,1.026,1.351
"4575","plant","worm",19,2.303,20,1,0,14,0.35,NA,NA,NA,NA,"worm ",0,9.224,16.663
"4575","forest","knob",20,6.08,25,1,1,15,0.375,NA,NA,NA,NA," ",0,0.702,1.089
"4575","collect","loyalty",5,2.647,27,1,1,7,0.175,NA,NA,NA,NA," ",0,0.792,1.112
"4575","date","laugh",64,2.618,13,1,0,26,0.65,NA,NA,NA,NA,"laugh",1,6.366,8.209
"4575","banner","glide",57,1.994,21,1,0,22,0.55,NA,NA,NA,NA,"glide",1,2.755,4.459
"4575","caring","skirt",62,1.935,30,1,1,25,0.625,NA,NA,NA,NA," ",0,0.889,1.235
"4575","risk","zero",70,1.942,35,1,0,30,0.75,NA,NA,NA,NA,"cost",0,4.21,5.724
"4575","fan","feature",13,4.571,4,1,0,10,0.25,NA,NA,NA,NA,"feather",0,3.079,5.358
"4575","want","ascent",38,2.069,6,1,0,20,0.5,NA,NA,NA,NA," ",0,2.099,2.487
"4575","bullet","walkway",100,2.744,14,1,1,39,0.975,NA,NA,NA,NA,"walkaway",0,2.596,6.465
"4575","grip","beach",25,2.096,12,1,0,16,0.4,NA,NA,NA,NA," ",0,0.889,1.249
"4575","bleach","ruin",85,2.502,10,1,1,35,0.875,NA,NA,NA,NA," ",0,1.048,1.366
"4575","bias","sirloin",61,12.85,9,1,1,23,0.575,NA,NA,NA,NA," ",0,0.819,1.129
"4575","chicken","beet",67,2.049,28,1,0,28,0.7,NA,NA,NA,NA," ",0,0.853,1.18
"4575","smother","surgery",100,2.312,33,1,0,38,0.95,NA,NA,NA,NA,"kill",0,14.969,17.775
"4575","pork","emperor",89,2.64,17,1,0,36,0.9,NA,NA,NA,NA,"emperor",1,1.393,3.699
"4575","knock","otter",71,6.015,11,1,1,31,0.775,NA,NA,NA,NA,"otter",1,1.566,3.048
"4575","need","faucet",1,2.155,32,1,1,3,0.075,NA,NA,NA,NA," ",0,0.769,1.203
"4582","nerve","bumper",80,1.478,22,1,0,35,0.875,NA,NA,NA,NA,"bone",0,5.238,8.189
"4582","pea","bathtub",21,1.47,28,1,1,8,0.2,NA,NA,NA,NA,"shooter",0,1.248,4.452
"4582","want","ascent",13,1.368,29,1,1,4,0.1,NA,NA,NA,NA,"need",0,1.172,2.766
"4582","capital","figure",32,1.576,21,1,0,25,0.625,NA,NA,NA,NA,"carnage",0,7.127,8.612
"4582","biology","temper",24,1.561,9,1,0,13,0.325,NA,NA,NA,NA,"bias",0,1.778,3.724
"4582","shrink","mafia",88,1.702,24,1,1,38,0.95,NA,NA,NA,NA,"head",0,1.189,2.329
"4582","collect","loyalty",11,2.259,10,1,1,2,0.05,NA,NA,NA,NA,"want",0,1.676,2.663
"4582","bullet","walkway",15,1.44,11,1,1,6,0.15,NA,NA,NA,NA,"window",0,1.133,2.419
"4582","smother","surgery",64,2.003,40,1,1,32,0.8,NA,NA,NA,NA,"surgery",1,2.13,3.523
"4582","find","clown",33,1.68,30,1,1,26,0.65,NA,NA,NA,NA,"hold",0,1.543,2.837
"4582","visit","glove",76,1.449,7,1,1,34,0.85,NA,NA,NA,NA,"have",0,1.33,2.281
"4582","pork","emperor",100,3.19,6,1,1,40,1,NA,NA,NA,NA,"shoulder",0,0.888,3.492
"4582","chicken","beet",85,1.651,18,1,0,37,0.925,NA,NA,NA,NA,"head",0,1.306,2.34
"4582","replace","roach",30,1.918,37,1,0,23,0.575,NA,NA,NA,NA,"want",0,1.165,2.352
"4582","copy","bedroom",37,3.155,26,1,0,29,0.725,NA,NA,NA,NA,"forget",0,2.141,3.173
"4582","knock","otter",29,1.382,13,1,1,22,0.55,NA,NA,NA,NA,"door",0,1.568,2.75
"4582","rock","milk",28,1.405,25,1,1,18,0.45,NA,NA,NA,NA,"peter",0,1.656,2.64
"4582","banner","glide",67,1.477,16,1,0,33,0.825,NA,NA,NA,NA,"business",0,2.432,4.19
"4582","bacon","feud",22,1.57,27,1,0,11,0.275,NA,NA,NA,NA,"break",0,4.729,5.993
"4582","anger","decay",14,1.397,19,1,0,5,0.125,NA,NA,NA,NA,"visit",0,1.584,4.604
"4582","fan","feature",11,1.913,34,1,0,3,0.075,NA,NA,NA,NA,"person",0,1.732,3.089
"4582","risk","zero",24,1.747,17,1,1,12,0.3,NA,NA,NA,NA,"reward",0,1.409,2.463
"4582","grip","beach",34,1.419,38,1,0,27,0.675,NA,NA,NA,NA,"winter",0,4.564,6.748
"4582","process","joker",28,1.585,14,1,0,19,0.475,NA,NA,NA,NA,"suffer",0,4.029,6.924
"4582","calf","annoy",34,2.113,3,1,1,28,0.7,NA,NA,NA,NA,"cow",0,2.186,3.075
"4582","fee","chowder",31,1.673,20,1,1,24,0.6,NA,NA,NA,NA,"fond",0,0.981,3.294
"4582","remind","foam",29,1.579,39,1,0,21,0.525,NA,NA,NA,NA,"winter",0,5.36,6.609
"4582","glue","force",17,11.093,23,1,0,7,0.175,NA,NA,NA,NA,"force",1,1.685,2.684
"4582","bleach","ruin",26,1.787,15,1,1,16,0.4,NA,NA,NA,NA,"death",0,2.192,3.419
"4582","bias","sirloin",100,1.603,2,1,0,39,0.975,NA,NA,NA,NA,"bovine",0,9.333,10.859
"4582","prison","loaf",28,1.359,32,1,1,20,0.5,NA,NA,NA,NA,"person",0,1.16,2.701
"4582","caring","skirt",28,1.524,35,1,0,17,0.425,NA,NA,NA,NA,"dead",0,1.506,2.996
"4582","forest","knob",59,2.193,31,1,1,30,0.75,NA,NA,NA,NA,"tree",0,0.894,1.853
"4582","need","faucet",22,4.028,4,1,0,9,0.225,NA,NA,NA,NA,"want",0,0.776,2.071
"4582","port","cinema",8,2.157,33,1,0,1,0.025,NA,NA,NA,NA,"villa",0,2.377,3.909
"4582","link","crisis",25,1.698,8,1,1,14,0.35,NA,NA,NA,NA,"chain",0,1.292,2.557
"4582","mill","feast",63,1.41,1,1,0,31,0.775,NA,NA,NA,NA,"bread",0,1.999,2.924
"4582","plant","worm",26,2.243,36,1,0,15,0.375,NA,NA,NA,NA,"preator",0,3.586,5.598
"4582","date","laugh",22,1.411,5,1,1,10,0.25,NA,NA,NA,NA,"destiny",0,1.7,3.803
"4582","climax","saucer",82,1.512,12,1,1,36,0.9,NA,NA,NA,NA,"anticipation",0,1.218,3.528
"4865","banner","glide",1,3.059,22,1,0,18,0.45,NA,NA,NA,NA,"d",0,4.75,6.328
"4865","grip","beach",1,1.792,4,1,0,38,0.95,NA,NA,NA,NA,"d",0,1.795,2.362
"4865","collect","loyalty",1,2.946,6,1,1,19,0.475,NA,NA,NA,NA,"d",0,0.976,1.609
"4865","want","ascent",1,1.962,19,1,0,10,0.25,NA,NA,NA,NA,"d",0,0.782,1.512
"4865","fan","feature",1,2.756,32,1,1,27,0.675,NA,NA,NA,NA,"d",0,2.583,3.315
"4865","chicken","beet",1,5.219,18,1,0,30,0.75,NA,NA,NA,NA,"d",0,0.93,1.573
"4865","pea","bathtub",1,2.643,1,1,0,4,0.1,NA,NA,NA,NA,"d",0,0.944,1.875
"4865","anger","decay",1,5.7,34,1,0,16,0.4,NA,NA,NA,NA,"d",0,1.07,1.707
"4865","knock","otter",1,2.176,29,1,1,33,0.825,NA,NA,NA,NA,"d",0,1.526,2.262
"4865","date","laugh",1,2.763,7,1,0,20,0.5,NA,NA,NA,NA,"d",0,0.917,1.479
"4865","replace","roach",1,2.194,13,1,1,31,0.775,NA,NA,NA,NA,"d",0,0.94,1.473
"4865","copy","bedroom",1,2.568,36,1,0,14,0.35,NA,NA,NA,NA,"d",0,2.556,3.237
"4865","climax","saucer",1,2.963,28,1,1,3,0.075,NA,NA,NA,NA,"d",0,1.111,1.694
"4865","visit","glove",1,2.126,31,1,0,12,0.3,NA,NA,NA,NA,"d",0,1.031,1.918
"4865","need","faucet",1,2.226,11,1,1,11,0.275,NA,NA,NA,NA,"d",0,2.022,2.731
"4865","glue","force",1,2.678,14,1,1,21,0.525,NA,NA,NA,NA,"d",0,1.323,1.982
"4865","capital","figure",1,2.737,25,1,0,2,0.05,NA,NA,NA,NA,"d",0,0.922,1.569
"4865","smother","surgery",1,2.786,40,1,0,26,0.65,NA,NA,NA,NA,"d",0,0.874,1.536
"4865","bleach","ruin",1,2.647,17,1,0,28,0.7,NA,NA,NA,NA,"d",0,1.507,2.351
"4865","biology","temper",1,2.091,39,1,1,37,0.925,NA,NA,NA,NA,"d",0,2.09,2.722
"4865","calf","annoy",1,2.369,30,1,1,39,0.975,NA,NA,NA,NA,"d",0,2.367,2.951
"4865","bacon","feud",1,2.209,3,1,1,23,0.575,NA,NA,NA,NA,"bias",0,5.935,7.857
"4865","rock","milk",1,2.576,2,1,0,22,0.55,NA,NA,NA,NA,"d",0,2.886,3.496
"4865","shrink","mafia",1,2.388,23,1,1,13,0.325,NA,NA,NA,NA,"d",0,1.044,3.822
"4865","link","crisis",1,2.017,27,1,0,32,0.8,NA,NA,NA,NA,"d",0,1.052,1.677
"4865","process","joker",1,2.729,15,1,1,7,0.175,NA,NA,NA,NA,"d",0,1.198,1.912
"4865","port","cinema",1,3.156,8,1,1,5,0.125,NA,NA,NA,NA,"d",0,1.489,2.195
"4865","fee","chowder",1,5.868,10,1,1,1,0.025,NA,NA,NA,NA,"d",0,1.305,2.002
"4865","find","clown",1,2.97,26,1,1,15,0.375,NA,NA,NA,NA,"d",0,1.105,5.546
"4865","bullet","walkway",1,3,38,1,0,6,0.15,NA,NA,NA,NA,"d",0,0.959,1.597
"4865","pork","emperor",1,2.81,5,1,1,25,0.625,NA,NA,NA,NA,"bias",0,2.629,4.53
"4865","risk","zero",1,2.205,37,1,1,9,0.225,NA,NA,NA,NA,"d",0,3.939,4.459
"4865","bias","sirloin",1,2.108,33,1,0,24,0.6,NA,NA,NA,NA,"d",0,4.541,5.342
"4865","prison","loaf",1,2.252,35,1,0,34,0.85,NA,NA,NA,NA,"d",0,1.934,3.991
"4865","plant","worm",68,8.678,9,1,0,40,1,NA,NA,NA,NA,"worm",1,2.831,4.701
"4865","caring","skirt",1,2.453,21,1,1,35,0.875,NA,NA,NA,NA,"d",0,1.977,2.765
"4865","remind","foam",1,3.237,20,1,1,29,0.725,NA,NA,NA,NA,"d",0,0.923,1.646
"4865","nerve","bumper",1,2.236,24,1,0,8,0.2,NA,NA,NA,NA,"d",0,0.714,1.755
"4865","mill","feast",1,2.481,16,1,0,36,0.9,NA,NA,NA,NA,"d",0,3.456,4.073
"4865","forest","knob",1,2.616,12,1,1,17,0.425,NA,NA,NA,NA,"d",0,1.968,2.499
"4906","process","joker",100,1.841,31,1,1,40,1,NA,NA,NA,NA,"Joker",0,2.917,4.042
"4906","prison","loaf",17,1.77,29,1,0,13,0.325,NA,NA,NA,NA,"loaf",1,3.061,4.229
"4906","replace","roach",14,2.182,40,1,0,11,0.275,NA,NA,NA,NA,"roach",1,5.436,6.892
"4906","climax","saucer",71,1.559,22,1,1,36,0.9,NA,NA,NA,NA,"SKIP",0,3.396,5.166
"4906","fee","chowder",1,1.775,15,1,0,7,0.175,NA,NA,NA,NA,"Skip",0,1.98,4.102
"4906","want","ascent",20,3.307,27,1,1,16,0.4,NA,NA,NA,NA,"Skip",0,1.617,3.302
"4906","nerve","bumper",12,2.081,30,1,0,9,0.225,NA,NA,NA,NA,"bumper",1,4.259,5.489
"4906","bleach","ruin",1,3.403,20,1,0,1,0.025,NA,NA,NA,NA,"ruin",1,2.219,3.341
"4906","forest","knob",53,1.608,6,1,1,30,0.75,NA,NA,NA,NA,"Skip",0,2.454,3.434
"4906","pork","emperor",1,2.495,32,1,1,6,0.15,NA,NA,NA,NA,"Skip",0,1.249,2.361
"4906","mill","feast",26,1.951,28,1,1,22,0.55,NA,NA,NA,NA,"Skip",0,3.419,4.436
"4906","chicken","beet",1,1.74,18,1,0,5,0.125,NA,NA,NA,NA,"Skip",0,8.55,10.46
"4906","pea","bathtub",14,2.227,2,1,1,10,0.25,NA,NA,NA,NA,"Skip",0,1.469,2.658
"4906","copy","bedroom",69,1.53,17,1,1,34,0.85,NA,NA,NA,NA,"Skip",0,0.921,2.164
"4906","glue","force",38,2.113,16,1,1,28,0.7,NA,NA,NA,NA,"Stick",0,1.294,2.481
"4906","smother","surgery",1,2.733,7,1,1,4,0.1,NA,NA,NA,NA,"skip",0,2.195,3.173
"4906","remind","foam",72,1.602,23,1,0,37,0.925,NA,NA,NA,NA,"foam",1,1.101,4.404
"4906","anger","decay",69,2.883,39,1,0,35,0.875,NA,NA,NA,NA,"decay",1,2.815,4.012
"4906","bias","sirloin",15,1.935,19,1,1,12,0.3,NA,NA,NA,NA,"skip",0,2.355,4.237
"4906","banner","glide",36,1.31,10,1,0,27,0.675,NA,NA,NA,NA,"glide",1,3.056,4.078
"4906","knock","otter",3,1.699,33,1,1,8,0.2,NA,NA,NA,NA,"skip",0,1.963,2.854
"4906","bullet","walkway",1,1.868,3,1,1,2,0.05,NA,NA,NA,NA,"skip",0,5.811,6.683
"4906","date","laugh",51,1.887,38,1,0,29,0.725,NA,NA,NA,NA,"skip",0,3.224,4.109
"4906","plant","worm",29,2.048,21,1,1,24,0.6,NA,NA,NA,NA,"skip",0,1.415,2.39
"4906","bacon","feud",75,1.378,1,1,1,38,0.95,NA,NA,NA,NA,"skip",0,1.419,2.472
"4906","link","crisis",24,2.007,4,1,0,19,0.475,NA,NA,NA,NA,"skip",0,3.352,4.294
"4906","visit","glove",77,1.845,26,1,0,39,0.975,NA,NA,NA,NA,"glovw",0,3.849,6.111
"4906","collect","loyalty",26,1.688,25,1,0,21,0.525,NA,NA,NA,NA,"loyalty",1,3.984,8.459
"4906","caring","skirt",23,1.838,13,1,0,17,0.425,NA,NA,NA,NA,"skirt",1,4.615,5.646
"4906","grip","beach",19,1.769,5,1,0,15,0.375,NA,NA,NA,NA,"beach",1,2.444,3.394
"4906","capital","figure",19,2.125,12,1,1,14,0.35,NA,NA,NA,NA,"skip",0,2.026,2.86
"4906","port","cinema",63,1.916,11,1,0,31,0.775,NA,NA,NA,NA,"skip",0,1.558,3.173
"4906","shrink","mafia",68,1.484,8,1,0,33,0.825,NA,NA,NA,NA,"skip",0,1.636,3.271
"4906","find","clown",65,1.561,35,1,1,32,0.8,NA,NA,NA,NA,"skip",0,1.255,2.612
"4906","rock","milk",1,1.746,9,1,0,3,0.075,NA,NA,NA,NA,"milk",1,4.762,6.039
"4906","need","faucet",24,1.946,14,1,1,18,0.45,NA,NA,NA,NA,"skip",0,4.87,5.714
"4906","biology","temper",28,2.627,36,1,0,23,0.575,NA,NA,NA,NA,"temper",1,3.662,4.694
"4906","fan","feature",32,2.66,37,1,1,26,0.65,NA,NA,NA,NA,"skip",0,1.121,2.352
"4906","risk","zero",31,2.172,24,1,0,25,0.625,NA,NA,NA,NA,"zero",1,1.873,3.293
"4906","calf","annoy",26,2.09,34,1,1,20,0.5,NA,NA,NA,NA,"skip",0,1.119,3.843
"5022","anger","decay",1,6.322,22,1,1,2,0.05,NA,NA,NA,NA,"fool",0,5.042,7.53
"5022","link","crisis",15,3.931,17,1,0,21,0.525,NA,NA,NA,NA,"skip",0,5.364,8.275
"5022","forest","knob",8,3.137,37,1,0,13,0.325,NA,NA,NA,NA,"knife",0,5.699,10.408
"5022","caring","skirt",6,2.661,4,1,0,9,0.225,NA,NA,NA,NA,"friend",0,3.055,5.526
"5022","date","laugh",93,5.039,40,1,1,40,1,NA,NA,NA,NA,"laugh",1,3.922,6.203
"5022","fan","feature",68,3.359,7,1,1,36,0.9,NA,NA,NA,NA,"water",0,7.974,14.727
"5022","rock","milk",61,7.208,29,1,1,34,0.85,NA,NA,NA,NA,"skip",0,7.38,8.962
"5022","need","faucet",10,2.655,15,1,1,16,0.4,NA,NA,NA,NA,"propeller",0,5.521,8.989
"5022","copy","bedroom",27,3.854,18,1,0,31,0.775,NA,NA,NA,NA,"fun",0,29.095,32.962
"5022","bullet","walkway",10,3.136,23,1,1,14,0.35,NA,NA,NA,NA,"mask",0,2.069,4.238
"5022","banner","glide",24,5.754,5,1,1,30,0.75,NA,NA,NA,NA,"country",0,1.766,4.191
"5022","smother","surgery",7,3.457,31,1,0,11,0.275,NA,NA,NA,NA,"sip",0,4.323,10.075
"5022","bacon","feud",1,3.766,11,1,1,4,0.1,NA,NA,NA,NA,"food",0,2.612,4.563
"5022","mill","feast",32,4.196,33,1,1,32,0.8,NA,NA,NA,NA,"shoes",0,2.66,6.379
"5022","bias","sirloin",1,2.578,38,1,0,5,0.125,NA,NA,NA,NA,"fry",0,2.442,6.243
"5022","glue","force",68,6.004,10,1,0,37,0.925,NA,NA,NA,NA,"force",1,5.424,9.059
"5022","port","cinema",18,2.275,13,1,1,26,0.65,NA,NA,NA,NA,"entry",0,1.538,3.423
"5022","fee","chowder",1,4.314,2,1,0,3,0.075,NA,NA,NA,NA,"sad",0,2.572,3.957
"5022","biology","temper",18,3.064,26,1,0,25,0.625,NA,NA,NA,NA,"strong",0,4.429,7.865
"5022","visit","glove",8,2.654,24,1,1,12,0.3,NA,NA,NA,NA,"tour",0,6.776,8.222
"5022","risk","zero",73,6.37,21,1,1,38,0.95,NA,NA,NA,NA,"zero",1,2.116,4.845
"5022","find","clown",13,7.699,3,1,1,18,0.45,NA,NA,NA,NA,"match",0,2.787,4.564
"5022","pork","emperor",7,2.816,16,1,1,10,0.25,NA,NA,NA,NA,"beans",0,1.819,3.458
"5022","calf","annoy",23,2.407,1,1,0,29,0.725,NA,NA,NA,NA,"annoying",0,2.425,9.125
"5022","bleach","ruin",83,7.597,35,1,0,39,0.975,NA,NA,NA,NA,"skip",0,5.488,7.158
"5022","capital","figure",15,2.923,39,1,1,20,0.5,NA,NA,NA,NA,"world",0,1.581,3.126
"5022","climax","saucer",16,3.622,25,1,0,23,0.575,NA,NA,NA,NA,"speed",0,2.975,5.044
"5022","process","joker",20,3.887,32,1,1,28,0.7,NA,NA,NA,NA,"sugar",0,3.186,5.898
"5022","shrink","mafia",1,3.171,19,1,1,6,0.15,NA,NA,NA,NA,"boat",0,1.812,4.255
"5022","remind","foam",14,2.773,8,1,0,19,0.475,NA,NA,NA,NA,"me",0,3.826,5.461
"5022","pea","bathtub",2,2.864,14,1,1,8,0.2,NA,NA,NA,NA,"world",0,2.03,7.716
"5022","want","ascent",18,3.169,20,1,0,27,0.675,NA,NA,NA,NA,"need",0,2.212,3.673
"5022","grip","beach",1,14.671,28,1,0,1,0.025,NA,NA,NA,NA,"skip",0,4.141,5.609
"5022","chicken","beet",18,3.622,36,1,1,24,0.6,NA,NA,NA,NA,"table",0,2.008,4.575
"5022","nerve","bumper",11,4.113,12,1,0,17,0.425,NA,NA,NA,NA,"mind",0,2.759,4.757
"5022","prison","loaf",63,5.841,34,1,0,35,0.875,NA,NA,NA,NA,"schools",0,8.75,12.528
"5022","replace","roach",16,3.071,9,1,1,22,0.55,NA,NA,NA,NA,"guard",0,1.951,3.549
"5022","plant","worm",10,3.656,27,1,0,15,0.375,NA,NA,NA,NA,"seed",0,2.65,5.205
"5022","collect","loyalty",49,11,6,1,0,33,0.825,NA,NA,NA,NA,"skip",0,3.399,8.025
"5022","knock","otter",2,2.619,30,1,0,7,0.175,NA,NA,NA,NA,"wood",0,1.883,4.13
"5101","capital","figure",26,2.982,31,1,1,5,0.125,NA,NA,NA,NA,"lost",0,1.92,5.32
"5101","prison","loaf",39,2.62,35,1,1,15,0.375,NA,NA,NA,NA,"debt",0,3.609,4.704
"5101","forest","knob",45,3.616,28,1,0,26,0.65,NA,NA,NA,NA,"chair",0,2.111,2.926
"5101","port","cinema",15,2.792,20,1,1,1,0.025,NA,NA,NA,NA,"load",0,4.384,5.216
"5101","nerve","bumper",42,2.73,15,1,0,24,0.6,NA,NA,NA,NA,"time",0,1.644,2.43
"5101","date","laugh",30,4.749,12,1,0,8,0.2,NA,NA,NA,NA,"laugh",1,2.138,5.215
"5101","glue","force",41,3.455,18,1,1,21,0.525,NA,NA,NA,NA,"stick",0,2.096,3.315
"5101","replace","roach",57,3.696,17,1,0,32,0.8,NA,NA,NA,NA,"dill",0,4.658,5.531
"5101","bullet","walkway",62,3.423,10,1,1,37,0.925,NA,NA,NA,NA,"wound",0,1.257,2.229
"5101","plant","worm",18,3.384,3,1,0,2,0.05,NA,NA,NA,NA,"soil",0,2.735,8.608
"5101","calf","annoy",30,2.349,19,1,1,7,0.175,NA,NA,NA,NA,"king",0,5.1,6.437
"5101","knock","otter",55,3.915,39,1,0,30,0.75,NA,NA,NA,NA,"door",0,2.086,2.986
"5101","copy","bedroom",39,3.164,24,1,1,17,0.425,NA,NA,NA,NA,"machine",0,1.519,2.726
"5101","anger","decay",45,3.514,11,1,1,27,0.675,NA,NA,NA,NA,"route",0,5.179,6.458
"5101","climax","saucer",66,3.423,25,1,0,38,0.95,NA,NA,NA,NA,"trigger",0,3.11,4.872
"5101","bacon","feud",39,3.816,23,1,0,16,0.4,NA,NA,NA,NA,"salt",0,1.925,2.796
"5101","visit","glove",41,5.835,27,1,1,19,0.475,NA,NA,NA,NA,"doctor",0,1.389,2.968
"5101","link","crisis",33,2.952,7,1,0,12,0.3,NA,NA,NA,NA,"dept",0,2.05,3.71
"5101","rock","milk",84,4.247,21,1,0,40,1,NA,NA,NA,NA,"milk",1,1.413,2.626
"5101","want","ascent",42,2.46,8,1,1,23,0.575,NA,NA,NA,NA,"loyalty",0,2.805,4.49
"5101","grip","beach",36,2.771,16,1,1,13,0.325,NA,NA,NA,NA,"tight",0,1.304,2.424
"5101","mill","feast",31,5.372,38,1,0,10,0.25,NA,NA,NA,NA,"town",0,3.398,4.152
"5101","bias","sirloin",61,2.681,22,1,1,35,0.875,NA,NA,NA,NA,"people",0,1.995,3.073
"5101","fee","chowder",58,3.072,9,1,1,33,0.825,NA,NA,NA,NA,"debt",0,1.088,2.06
"5101","shrink","mafia",28,2.37,26,1,0,6,0.15,NA,NA,NA,NA,"duties",0,1.55,3.227
"5101","collect","loyalty",83,3.363,5,1,1,39,0.975,NA,NA,NA,NA,"shirt",0,2.362,3.475
"5101","bleach","ruin",58,3.636,13,1,0,34,0.85,NA,NA,NA,NA,"ruin",1,2.272,3.332
"5101","find","clown",42,3.002,36,1,0,22,0.55,NA,NA,NA,NA,"beach",0,1.537,7.109
"5101","pork","emperor",43,2.761,34,1,1,25,0.625,NA,NA,NA,NA,"lion",0,3.233,4.471
"5101","banner","glide",20,3.184,2,1,1,3,0.075,NA,NA,NA,NA,"flag",0,1.36,2.124
"5101","risk","zero",55,3.654,37,1,1,29,0.725,NA,NA,NA,NA,"travel",0,7.14,9.339
"5101","pea","bathtub",30,2.37,4,1,1,9,0.225,NA,NA,NA,NA,"snow",0,1.492,4.819
"5101","smother","surgery",39,2.75,40,1,0,18,0.45,NA,NA,NA,NA,"skip",0,7.866,8.962
"5101","fan","feature",61,2.821,1,1,0,36,0.9,NA,NA,NA,NA,"turn",0,2.499,4.432
"5101","caring","skirt",38,3.172,6,1,0,14,0.35,NA,NA,NA,NA,"people",0,3.923,4.936
"5101","process","joker",32,3.897,14,1,1,11,0.275,NA,NA,NA,NA,"trust",0,2.441,3.758
"5101","remind","foam",54,2.611,30,1,0,28,0.7,NA,NA,NA,NA,"thought",0,1.332,2.526
"5101","need","faucet",56,4.004,29,1,1,31,0.775,NA,NA,NA,NA,"love",0,1.181,2.02
"5101","biology","temper",22,3.163,33,1,0,4,0.1,NA,NA,NA,NA,"chemistry ",0,1.833,4.327
"5101","chicken","beet",41,2.983,32,1,0,20,0.5,NA,NA,NA,NA,"chick",0,2.347,3.563
"5239","bleach","ruin",1,2.096,24,1,1,5,0.125,NA,NA,NA,NA,"Don't know",0,3.424,8.36
"5239","replace","roach",1,2.656,12,1,1,9,0.225,NA,NA,NA,NA,"Don't know",0,1.623,5.847
"5239","knock","otter",1,2.4,17,1,0,2,0.05,NA,NA,NA,NA,"Don't know",0,1.808,5.239
"5239","biology","temper",1,2.416,1,1,0,10,0.25,NA,NA,NA,NA,"Don't know",0,1.512,4.64
"5239","anger","decay",2,3.736,39,1,0,18,0.45,NA,NA,NA,NA,"Don't know",0,2.28,5.256
"5239","want","ascent",1,2.032,2,1,0,12,0.3,NA,NA,NA,NA,"Don't know",0,2.976,3.311
"5239","calf","annoy",10,5.36,26,1,1,31,0.775,NA,NA,NA,NA,"annoy",1,2.111,4.6
"5239","fee","chowder",4,4.049,4,1,0,26,0.65,NA,NA,NA,NA,"replace",0,3.56,7.248
"5239","bacon","feud",3,3.76,25,1,1,23,0.575,NA,NA,NA,NA,"Don't know",0,4.008,4.486
"5239","link","crisis",26,2.584,20,1,1,39,0.975,NA,NA,NA,NA,"crisis",1,1.711,4.103
"5239","rock","milk",19,2.744,11,1,0,36,0.9,NA,NA,NA,NA,"milk",1,3.191,5.311
"5239","pork","emperor",27,2.224,31,1,0,40,1,NA,NA,NA,NA,"emperor",1,1.847,5.167
"5239","port","cinema",1,2.471,9,1,1,7,0.175,NA,NA,NA,NA,"Don't know",0,1.768,2.112
"5239","process","joker",1,1.992,14,1,1,11,0.275,NA,NA,NA,NA,"Don't know",0,1.48,1.736
"5239","grip","beach",2,2.511,10,1,0,20,0.5,NA,NA,NA,NA,"Don't know",0,4.176,4.471
"5239","caring","skirt",9,5.727,16,1,1,29,0.725,NA,NA,NA,NA,"skirt",1,1.481,4.977
"5239","climax","saucer",1,1.959,29,1,1,15,0.375,NA,NA,NA,NA,"Don't know",0,1.593,1.887
"5239","capital","figure",3,4.64,5,1,1,21,0.525,NA,NA,NA,NA,"Don't know",0,4.521,4.872
"5239","smother","surgery",1,3.344,18,1,1,13,0.325,NA,NA,NA,NA,"Don't know",0,4.704,5.088
"5239","copy","bedroom",3,2.711,30,1,0,22,0.55,NA,NA,NA,NA,"Don't know",0,2.625,2.912
"5239","shrink","mafia",19,4.447,23,1,1,35,0.875,NA,NA,NA,NA,"mafia",1,1.713,3.744
"5239","mill","feast",1,3.704,32,1,1,17,0.425,NA,NA,NA,NA,"Don't know",0,3.008,3.304
"5239","banner","glide",2,4.777,19,1,1,19,0.475,NA,NA,NA,NA,"Don't know",0,1.129,1.463
"5239","bullet","walkway",17,2.568,40,1,1,33,0.825,NA,NA,NA,NA,"Don't know",0,1.791,2.023
"5239","forest","knob",1,2.199,13,1,0,4,0.1,NA,NA,NA,NA,"knob",1,2.072,4.592
"5239","fan","feature",10,3.111,37,1,0,30,0.75,NA,NA,NA,NA,"Don't know",0,1.96,2.991
"5239","bias","sirloin",1,4.217,36,1,0,14,0.35,NA,NA,NA,NA,"Don't know",0,1.097,1.376
"5239","find","clown",1,6.311,27,1,1,1,0.025,NA,NA,NA,NA,"Don't know",0,1.065,1.776
"5239","date","laugh",18,2.865,3,1,0,34,0.85,NA,NA,NA,NA,"laugh",1,2.12,6.112
"5239","chicken","beet",1,3.953,33,1,0,16,0.4,NA,NA,NA,NA,"Don't know",0,2.344,2.712
"5239","glue","force",22,4.352,15,1,1,37,0.925,NA,NA,NA,NA,"force",1,1.776,3.872
"5239","plant","worm",16,2.919,21,1,0,32,0.8,NA,NA,NA,NA,"worm",1,4.048,6.064
"5239","pea","bathtub",4,4.176,8,1,1,27,0.675,NA,NA,NA,NA,"bathtub",1,1.823,4.607
"5239","risk","zero",26,3.384,6,1,0,38,0.95,NA,NA,NA,NA,"Don't know",0,3.136,3.408
"5239","remind","foam",5,2.52,7,1,0,28,0.7,NA,NA,NA,NA,"Don't know",0,1.008,1.359
"5239","collect","loyalty",1,2.943,22,1,0,6,0.15,NA,NA,NA,NA,"Don't know",0,1.697,1.936
"5239","nerve","bumper",1,3.672,35,1,1,3,0.075,NA,NA,NA,NA,"Don't know",0,1.137,1.393
"5239","visit","glove",1,2.768,34,1,0,8,0.2,NA,NA,NA,NA,"Don't know",0,1.968,2.272
"5239","prison","loaf",3,2.751,38,1,0,24,0.6,NA,NA,NA,NA,"loaf",1,11.185,17.585
"5239","need","faucet",3,6.432,28,1,1,25,0.625,NA,NA,NA,NA,"Don't know",0,1.633,2.007
"5286","plant","worm",65,9.742,11,1,1,36,0.9,NA,NA,NA,NA,"worm",1,3.172,5.586
"5286","smother","surgery",17,6.364,16,1,1,24,0.6,NA,NA,NA,NA,"beach",0,4.342,7.65
"5286","remind","foam",1,7.191,32,1,0,7,0.175,NA,NA,NA,NA,"foam",1,4.781,7.322
"5286","biology","temper",63,7.375,13,1,0,33,0.825,NA,NA,NA,NA,"temper",1,3.613,9.894
"5286","visit","glove",10,5.773,25,1,0,21,0.525,NA,NA,NA,NA,"skip",0,6.599,9.76
"5286","mill","feast",37,5.976,14,1,1,30,0.75,NA,NA,NA,NA,"feast",1,1.791,3.773
"5286","banner","glide",1,3.531,36,1,0,3,0.075,NA,NA,NA,NA,"float",0,4.654,8.865
"5286","prison","loaf",1,6.803,7,1,1,4,0.1,NA,NA,NA,NA,"skip",0,2.691,5.346
"5286","capital","figure",30,10.483,20,1,0,29,0.725,NA,NA,NA,NA,"skip",0,21.505,24.698
"5286","copy","bedroom",1,3.665,26,1,0,15,0.375,NA,NA,NA,NA,"skip",0,8.711,11.394
"5286","shrink","mafia",5,4.934,29,1,0,17,0.425,NA,NA,NA,NA,"skip",0,20.306,22.761
"5286","date","laugh",65,8.147,23,1,0,35,0.875,NA,NA,NA,NA,"laugh",1,2.597,5.028
"5286","pea","bathtub",85,7.57,1,1,1,40,1,NA,NA,NA,NA,"bathtub",1,1.138,3.54
"5286","bullet","walkway",1,4.879,22,1,0,11,0.275,NA,NA,NA,NA,"skip",0,4.652,8.428
"5286","bleach","ruin",60,6.568,33,1,1,32,0.8,NA,NA,NA,NA,"ruin",1,1.641,3.307
"5286","bacon","feud",22,9.718,19,1,0,25,0.625,NA,NA,NA,NA,"feud",1,8.579,10.679
"5286","caring","skirt",70,4.071,8,1,0,37,0.925,NA,NA,NA,NA,"skirt",1,3.17,6.179
"5286","process","joker",8,6.576,10,1,1,18,0.45,NA,NA,NA,NA,"skip",0,2.385,4.476
"5286","port","cinema",25,12.67,31,1,1,28,0.7,NA,NA,NA,NA,"thunder",0,11.62,13.655
"5286","climax","saucer",1,10.14,21,1,1,12,0.3,NA,NA,NA,NA,"theater",0,3.447,10.31
"5286","grip","beach",1,3.282,2,1,0,13,0.325,NA,NA,NA,NA,"calf",0,8.819,11.115
"5286","glue","force",55,5.596,15,1,0,31,0.775,NA,NA,NA,NA,"force",1,4.61,6.318
"5286","rock","milk",80,5.57,35,1,0,39,0.975,NA,NA,NA,NA,"skip",0,9.213,12.629
"5286","link","crisis",1,5.643,24,1,1,14,0.35,NA,NA,NA,NA,"lifeguard",0,5.511,8.11
"5286","risk","zero",9,9.424,12,1,0,19,0.475,NA,NA,NA,NA,"skip",0,37.553,39.376
"5286","pork","emperor",25,13.367,38,1,0,27,0.675,NA,NA,NA,NA,"emperor",1,7.861,12.278
"5286","collect","loyalty",24,10.459,39,1,1,26,0.65,NA,NA,NA,NA,"senior",0,8.199,10.173
"5286","calf","annoy",10,18.025,17,1,1,20,0.5,NA,NA,NA,NA,"grab",0,2.801,4.722
"5286","chicken","beet",11,6.939,9,1,1,22,0.55,NA,NA,NA,NA,"skip",0,3.542,7.034
"5286","replace","roach",1,14.933,6,1,0,1,0.025,NA,NA,NA,NA,"skip",0,8.514,11.015
"5286","fan","feature",5,9.944,3,1,1,16,0.4,NA,NA,NA,NA,"replace",0,4.888,7.44
"5286","want","ascent",1,4.239,34,1,0,5,0.125,NA,NA,NA,NA,"skip",0,3.662,6.701
"5286","need","faucet",1,6.832,30,1,1,10,0.25,NA,NA,NA,NA,"beach",0,4.434,6.957
"5286","knock","otter",1,5.277,37,1,1,6,0.15,NA,NA,NA,NA,"afloat",0,9.141,17.539
"5286","forest","knob",77,6.227,4,1,1,38,0.95,NA,NA,NA,NA,"knob",1,1.453,3.259
"5286","fee","chowder",1,6.038,5,1,1,2,0.05,NA,NA,NA,NA,"theater",0,7.904,9.509
"5286","anger","decay",63,8.544,27,1,1,34,0.85,NA,NA,NA,NA,"torn",0,5.145,6.66
"5286","bias","sirloin",1,3.68,28,1,1,8,0.2,NA,NA,NA,NA,"side",0,4.444,5.79
"5286","nerve","bumper",13,7.608,40,1,0,23,0.575,NA,NA,NA,NA,"skip",0,3.043,5.68
"5286","find","clown",1,5.048,18,1,0,9,0.225,NA,NA,NA,NA,"skip",0,1.934,26.342
"5499","fan","feature",12,1.507,14,1,1,1,0.025,NA,NA,NA,NA,"?",0,3.012,4.701
"5499","port","cinema",43,1.694,2,1,1,23,0.575,NA,NA,NA,NA,"?",0,2.951,3.249
"5499","banner","glide",40,1.62,12,1,0,20,0.5,NA,NA,NA,NA,"?",0,4.001,9.015
"5499","grip","beach",29,1.675,21,1,0,10,0.25,NA,NA,NA,NA,"?",0,1.521,1.84
"5499","pea","bathtub",63,2.837,27,1,0,34,0.85,NA,NA,NA,NA,"bath",0,2.707,4.366
"5499","process","joker",34,1.584,37,1,0,12,0.3,NA,NA,NA,NA,"?",0,1.695,2.247
"5499","bullet","walkway",68,3.636,7,1,1,37,0.925,NA,NA,NA,NA,"?",0,1.302,1.663
"5499","rock","milk",53,2.757,26,1,0,30,0.75,NA,NA,NA,NA,"?",0,0.994,1.359
"5499","visit","glove",38,1.433,28,1,0,18,0.45,NA,NA,NA,NA,"?",0,1.346,2.247
"5499","nerve","bumper",40,1.405,3,1,1,21,0.525,NA,NA,NA,NA,"?",0,2.483,2.75
"5499","copy","bedroom",36,1.838,15,1,1,13,0.325,NA,NA,NA,NA,"?",0,1.153,1.459
"5499","need","faucet",38,2.334,18,1,1,17,0.425,NA,NA,NA,NA,"?",0,0.877,1.255
"5499","climax","saucer",63,2.244,10,1,1,35,0.875,NA,NA,NA,NA,"?",0,0.941,1.311
"5499","bleach","ruin",39,2.017,13,1,1,19,0.475,NA,NA,NA,NA,"?",0,1.858,2.041
"5499","glue","force",42,1.587,22,1,0,22,0.55,NA,NA,NA,NA,"grip",0,3.477,5.158
"5499","chicken","beet",61,1.528,11,1,0,32,0.8,NA,NA,NA,NA,"?",0,1.895,2.335
"5499","shrink","mafia",26,1.378,32,1,0,6,0.15,NA,NA,NA,NA,"?",0,1.207,1.534
"5499","anger","decay",28,1.458,29,1,1,9,0.225,NA,NA,NA,NA,"?",0,0.982,1.225
"5499","caring","skirt",27,1.405,1,1,0,8,0.2,NA,NA,NA,NA,"?",0,1.584,1.813
"5499","bacon","feud",47,3.138,35,1,1,25,0.625,NA,NA,NA,NA,"?",0,1.02,1.238
"5499","bias","sirloin",34,1.801,8,1,1,11,0.275,NA,NA,NA,NA,"?",0,1.049,1.342
"5499","risk","zero",26,1.708,38,1,1,5,0.125,NA,NA,NA,NA,"?",0,0.838,1.217
"5499","knock","otter",37,1.383,36,1,1,15,0.375,NA,NA,NA,NA,"grasp",0,4.173,5.951
"5499","capital","figure",60,13.988,4,1,1,31,0.775,NA,NA,NA,NA,"?",0,2.649,2.911
"5499","prison","loaf",92,1.476,30,1,0,40,1,NA,NA,NA,NA,"loaf",1,3.291,5.049
"5499","fee","chowder",36,1.366,9,1,0,14,0.35,NA,NA,NA,NA,"?",0,1.898,2.183
"5499","mill","feast",37,1.52,17,1,0,16,0.4,NA,NA,NA,NA,"?",0,0.798,1.586
"5499","find","clown",25,1.583,16,1,1,3,0.075,NA,NA,NA,NA,"?",0,0.854,1.18
"5499","forest","knob",50,2.206,20,1,1,27,0.675,NA,NA,NA,NA,"?",0,1.18,1.335
"5499","smother","surgery",62,1.947,33,1,1,33,0.825,NA,NA,NA,NA,"?",0,1.97,2.379
"5499","replace","roach",27,1.375,23,1,1,7,0.175,NA,NA,NA,NA,"?",0,0.945,1.264
"5499","calf","annoy",68,1.711,40,1,0,38,0.95,NA,NA,NA,NA,"?",0,2.091,2.251
"5499","pork","emperor",67,2.494,6,1,0,36,0.9,NA,NA,NA,NA,"?",0,2.156,2.472
"5499","remind","foam",51,9.394,25,1,1,29,0.725,NA,NA,NA,NA,"?",0,0.691,1.013
"5499","collect","loyalty",26,1.734,31,1,0,4,0.1,NA,NA,NA,NA,"?",0,0.955,1.204
"5499","link","crisis",44,1.276,19,1,0,24,0.6,NA,NA,NA,NA,"?",0,1.026,1.257
"5499","biology","temper",15,1.39,24,1,0,2,0.05,NA,NA,NA,NA,"?",0,1.175,1.374
"5499","date","laugh",51,2.305,34,1,0,28,0.7,NA,NA,NA,NA,"?",0,0.942,1.296
"5499","plant","worm",69,1.95,39,1,1,39,0.975,NA,NA,NA,NA,"?",0,0.843,1.286
"5499","want","ascent",50,7.249,5,1,0,26,0.65,NA,NA,NA,NA,"?",0,0.685,0.955
"6113","caring","skirt",71,2.637,14,1,1,31,0.775,NA,NA,NA,NA,"skip",0,11.7,16.038
"6113","prison","loaf",48,3.858,37,1,1,23,0.575,NA,NA,NA,NA,"skip",0,9.617,12.098
"6113","want","ascent",21,2.512,5,1,0,12,0.3,NA,NA,NA,NA,"ascent",1,6.02,8.023
"6113","fan","feature",68,2.304,27,1,0,28,0.7,NA,NA,NA,NA,"feature",1,5.11,7.639
"6113","biology","temper",6,10.525,23,1,1,1,0.025,NA,NA,NA,NA,"temper",1,6.535,8.642
"6113","risk","zero",58,2.146,10,1,1,27,0.675,NA,NA,NA,NA,"zero",1,8.909,10.901
"6113","plant","worm",80,2.436,34,1,1,39,0.975,NA,NA,NA,NA,"skip",0,9.207,13.629
"6113","bleach","ruin",56,2.195,1,1,1,25,0.625,NA,NA,NA,NA,"ruin",1,2.129,3.598
"6113","shrink","mafia",22,1.956,4,1,0,14,0.35,NA,NA,NA,NA,"skip",0,6.482,7.984
"6113","anger","decay",22,2.139,8,1,1,13,0.325,NA,NA,NA,NA,"decay",1,7.378,9.06
"6113","process","joker",11,2.223,39,1,1,3,0.075,NA,NA,NA,NA,"skip",0,2.117,3.422
"6113","mill","feast",54,2.291,38,1,0,24,0.6,NA,NA,NA,NA,"feast",1,6.935,8.628
"6113","replace","roach",28,2.848,25,1,1,19,0.475,NA,NA,NA,NA,"skip",0,2.953,4.46
"6113","remind","foam",42,2.3,19,1,0,22,0.55,NA,NA,NA,NA,"foam",1,6.627,8.509
"6113","grip","beach",74,3.068,24,1,1,33,0.825,NA,NA,NA,NA,"skip",0,5.54,7.223
"6113","visit","glove",57,3.144,20,1,0,26,0.65,NA,NA,NA,NA,"glove",1,8.543,10.113
"6113","calf","annoy",38,5.029,26,1,0,20,0.5,NA,NA,NA,NA,"skip",0,3.758,5.052
"6113","rock","milk",40,2.565,13,1,1,21,0.525,NA,NA,NA,NA,"skip",0,6.008,7.181
"6113","smother","surgery",13,3.088,31,1,0,4,0.1,NA,NA,NA,NA,"surgery",1,6.427,8.606
"6113","climax","saucer",15,3.553,15,1,1,7,0.175,NA,NA,NA,NA,"sauce",0,9.037,10.498
"6113","bullet","walkway",27,2.564,36,1,0,18,0.45,NA,NA,NA,NA,"skip",0,1.985,3.451
"6113","nerve","bumper",79,18.604,21,1,0,36,0.9,NA,NA,NA,NA,"skip",0,3.975,5.205
"6113","need","faucet",21,2.115,6,1,1,11,0.275,NA,NA,NA,NA,"faucet",1,6.984,8.78
"6113","fee","chowder",26,5.008,32,1,1,17,0.425,NA,NA,NA,NA,"skip",0,1.564,2.987
"6113","bacon","feud",80,5.938,12,1,0,38,0.95,NA,NA,NA,NA,"skip",0,10.897,12.185
"6113","capital","figure",15,2.39,16,1,0,8,0.2,NA,NA,NA,NA,"skip",0,1.589,2.917
"6113","chicken","beet",25,2.274,22,1,0,16,0.4,NA,NA,NA,NA,"beet",1,7.137,8.89
"6113","bias","sirloin",73,2.512,7,1,0,32,0.8,NA,NA,NA,NA,"steak",0,8.798,10.72
"6113","collect","loyalty",8,4.091,17,1,0,2,0.05,NA,NA,NA,NA,"skip",0,5.053,7.651
"6113","port","cinema",18,2.431,3,1,1,9,0.225,NA,NA,NA,NA,"cinema",1,6.21,8.045
"6113","knock","otter",13,2.383,33,1,1,5,0.125,NA,NA,NA,NA,"skip",0,6.219,7.47
"6113","find","clown",77,2.391,2,1,1,35,0.875,NA,NA,NA,NA,"skip",0,1.341,2.782
"6113","copy","bedroom",70,4.302,18,1,0,30,0.75,NA,NA,NA,NA,"bedroom",1,8.544,11.198
"6113","pork","emperor",83,3.612,28,1,0,40,1,NA,NA,NA,NA,"emperor",1,6.401,10.533
"6113","pea","bathtub",76,2.563,30,1,0,34,0.85,NA,NA,NA,NA,"bath",0,6.227,7.676
"6113","forest","knob",68,2.073,35,1,1,29,0.725,NA,NA,NA,NA,"skip",0,2.782,4.044
"6113","glue","force",13,2.661,9,1,0,6,0.15,NA,NA,NA,NA,"skip",0,1.593,2.695
"6113","link","crisis",23,4.185,11,1,1,15,0.375,NA,NA,NA,NA,"skip",0,6.961,8.304
"6113","date","laugh",80,5.255,29,1,1,37,0.925,NA,NA,NA,NA,"skip",0,6.521,7.761
"6113","banner","glide",19,3.35,40,1,0,10,0.25,NA,NA,NA,NA,"glide",1,8.359,9.887
"6158","climax","saucer",11,2.246,14,1,0,3,0.075,NA,NA,NA,NA,"fire",0,6.013,13.368
"6158","chicken","beet",95,4.295,27,1,0,35,0.875,NA,NA,NA,NA,"beet",1,7.706,11.875
"6158","bias","sirloin",83,2.688,5,1,0,29,0.725,NA,NA,NA,NA,"growth",0,4.692,6.926
"6158","grip","beach",73,2.814,19,1,1,22,0.55,NA,NA,NA,NA,"fire",0,2.894,4.439
"6158","glue","force",87,2.056,37,1,0,31,0.775,NA,NA,NA,NA,"red",0,7.755,8.863
"6158","caring","skirt",18,3.152,10,1,1,6,0.15,NA,NA,NA,NA,"frost",0,3.07,5.741
"6158","replace","roach",17,3.567,34,1,0,5,0.125,NA,NA,NA,NA,"wire",0,12.045,14.017
"6158","pork","emperor",100,2.86,16,1,1,38,0.95,NA,NA,NA,NA,"leader",0,6.125,8.006
"6158","biology","temper",43,3.663,12,1,1,14,0.35,NA,NA,NA,NA,"vase",0,2.254,3.399
"6158","want","ascent",80,4.294,18,1,0,25,0.625,NA,NA,NA,NA,"tell",0,3.976,6.896
"6158","calf","annoy",100,3.264,36,1,0,39,0.975,NA,NA,NA,NA,"shelf",0,13.521,16.046
"6158","fee","chowder",96,3.495,2,1,1,36,0.9,NA,NA,NA,NA,"buffet",0,2.188,4.294
"6158","banner","glide",9,2.254,20,1,1,2,0.05,NA,NA,NA,NA,"top",0,1.806,3.255
"6158","forest","knob",89,2.67,7,1,1,32,0.8,NA,NA,NA,NA,"law",0,1.453,2.87
"6158","pea","bathtub",90,7.294,23,1,0,33,0.825,NA,NA,NA,NA,"bathtub",1,2.246,4.982
"6158","fan","feature",63,2.483,8,1,1,16,0.4,NA,NA,NA,NA,"high",0,1.678,5.19
"6158","bullet","walkway",71,2.087,35,1,0,21,0.525,NA,NA,NA,NA,"syndrome",0,2.157,5.584
"6158","capital","figure",71,2.301,9,1,1,20,0.5,NA,NA,NA,NA,"call",0,1.954,3.686
"6158","shrink","mafia",80,2.549,24,1,0,27,0.675,NA,NA,NA,NA,"seer",0,4.35,5.519
"6158","rock","milk",68,5.862,30,1,1,18,0.45,NA,NA,NA,NA,"water",0,4.999,6.5
"6158","anger","decay",40,2.501,4,1,0,13,0.325,NA,NA,NA,NA,"disguise ",0,2.77,5.906
"6158","port","cinema",69,2.878,28,1,0,19,0.475,NA,NA,NA,NA,"harbor",0,2.127,4.191
"6158","need","faucet",80,2.046,15,1,1,26,0.65,NA,NA,NA,NA,"wait",0,3.678,6.942
"6158","bleach","ruin",98,4.079,22,1,0,37,0.925,NA,NA,NA,NA,"stain",0,4.355,26.696
"6158","collect","loyalty",84,2.014,1,1,1,30,0.75,NA,NA,NA,NA,"crow",0,2.334,5.503
"6158","knock","otter",12,2.253,29,1,1,4,0.1,NA,NA,NA,NA,"toy",0,2.007,3.688
"6158","mill","feast",66,2.342,26,1,0,17,0.425,NA,NA,NA,NA,"stead",0,2.014,3.551
"6158","plant","worm",20,4.183,3,1,0,7,0.175,NA,NA,NA,NA,"fiber",0,6.437,8.358
"6158","remind","foam",29,2.087,31,1,1,10,0.25,NA,NA,NA,NA,"annoy",0,1.574,3.702
"6158","find","clown",93,2.42,38,1,1,34,0.85,NA,NA,NA,NA,"new",0,3.055,4.687
"6158","link","crisis",8,3.006,17,1,0,1,0.025,NA,NA,NA,NA,"final",0,14.934,20.103
"6158","copy","bedroom",78,2.806,39,1,1,24,0.6,NA,NA,NA,NA,"vet",0,1.947,2.924
"6158","process","joker",25,8.93,13,1,1,8,0.2,NA,NA,NA,NA,"made",0,2.379,3.863
"6158","nerve","bumper",33,2.19,32,1,0,11,0.275,NA,NA,NA,NA,"stubborn",0,2.343,5.655
"6158","date","laugh",81,1.64,21,1,1,28,0.7,NA,NA,NA,NA,"final",0,1.672,4.632
"6158","smother","surgery",38,2.759,6,1,1,12,0.3,NA,NA,NA,NA,"grasp",0,2.367,3.963
"6158","visit","glove",28,2.39,33,1,0,9,0.225,NA,NA,NA,NA,"weather",0,4.734,6.526
"6158","prison","loaf",60,2.551,25,1,0,15,0.375,NA,NA,NA,NA,"time",0,1.871,3.336
"6158","risk","zero",74,3.198,11,1,0,23,0.575,NA,NA,NA,NA,"avoid",0,2.966,5.047
"6158","bacon","feud",100,1.909,40,1,1,40,1,NA,NA,NA,NA,"sirloin ",0,3.935,9.35
"6174","capital","figure",1,4.068,39,1,0,5,0.125,NA,NA,NA,NA,"building",0,17.706,84.775
"6174","caring","skirt",1,2.969,31,1,0,11,0.275,NA,NA,NA,NA,"bath",0,39.794,43.076
"6174","link","crisis",1,2.762,28,1,0,23,0.575,NA,NA,NA,NA,"soccer",0,10.966,14.027
"6174","anger","decay",1,7.243,40,1,0,35,0.875,NA,NA,NA,NA,"clown",0,8.474,16.515
"6174","replace","roach",1,4.468,21,1,1,26,0.65,NA,NA,NA,NA,"skip",0,5.232,10.757
"6174","forest","knob",1,2.695,25,1,0,25,0.625,NA,NA,NA,NA,"skip",0,1.916,4.304
"6174","collect","loyalty",1,3.621,38,1,1,4,0.1,NA,NA,NA,NA,"skip",0,1.527,3.745
"6174","find","clown",1,2.515,15,1,0,3,0.075,NA,NA,NA,NA,"skip",0,1.394,3.815
"6174","bleach","ruin",1,3.028,13,1,1,32,0.8,NA,NA,NA,NA,"skip",0,1.799,8.437
"6174","bacon","feud",1,5.763,8,1,0,1,0.025,NA,NA,NA,NA,"skip",0,3.994,31.893
"6174","nerve","bumper",1,3.591,24,1,1,36,0.9,NA,NA,NA,NA,"skip",0,1.946,4.206
"6174","calf","annoy",1,2.909,20,1,0,9,0.225,NA,NA,NA,NA,"skip",0,5.363,7.319
"6174","copy","bedroom",1,12.279,17,1,0,33,0.825,NA,NA,NA,NA,"skip",0,29.173,31.721
"6174","biology","temper",1,8.581,32,1,0,29,0.725,NA,NA,NA,NA,"skip",0,16.449,18.617
"6174","rock","milk",1,3.54,6,1,0,13,0.325,NA,NA,NA,NA,"clown",0,2.996,10.813
"6174","pork","emperor",1,3.146,23,1,0,15,0.375,NA,NA,NA,NA,"skip",0,23.204,25.722
"6174","bias","sirloin",1,3.042,33,1,0,19,0.475,NA,NA,NA,NA,"skip",0,6.549,20.728
"6174","risk","zero",1,5.048,12,1,1,30,0.75,NA,NA,NA,NA,"skip",0,1.814,3.875
"6174","bullet","walkway",1,4.372,3,1,1,22,0.55,NA,NA,NA,NA,"skip",0,2.497,4.632
"6174","pea","bathtub",1,2.902,35,1,0,21,0.525,NA,NA,NA,NA,"bath",0,3.225,6.163
"6174","chicken","beet",1,5.351,30,1,1,28,0.7,NA,NA,NA,NA,"skip",0,5.224,9.486
"6174","fan","feature",1,2.701,36,1,1,18,0.45,NA,NA,NA,NA,"skip",0,1.408,3.598
"6174","knock","otter",1,2.413,14,1,0,37,0.925,NA,NA,NA,NA,"skip",0,1.573,4.062
"6174","fee","chowder",1,2.998,34,1,1,2,0.05,NA,NA,NA,NA,"skip",0,5.91,28.537
"6174","remind","foam",1,2.161,18,1,1,12,0.3,NA,NA,NA,NA,"skip",0,2.25,4.371
"6174","visit","glove",1,11.153,22,1,0,27,0.675,NA,NA,NA,NA,"skip",0,51.474,56.197
"6174","port","cinema",1,2.991,7,1,1,8,0.2,NA,NA,NA,NA,"skip",0,3.676,5.936
"6174","want","ascent",1,3.312,16,1,1,14,0.35,NA,NA,NA,NA,"skip",0,9.948,13.593
"6174","banner","glide",1,3.072,11,1,1,10,0.25,NA,NA,NA,NA,"skip",0,9.099,11.617
"6174","grip","beach",1,2.642,10,1,1,24,0.6,NA,NA,NA,NA,"skip",0,1.771,12.625
"6174","process","joker",1,6.939,9,1,0,31,0.775,NA,NA,NA,NA,"skip",0,1.427,3.561
"6174","smother","surgery",1,3.644,27,1,0,7,0.175,NA,NA,NA,NA,"skip",0,1.975,7.109
"6174","need","faucet",1,2.591,26,1,0,17,0.425,NA,NA,NA,NA,"skip",0,1.576,4.384
"6174","prison","loaf",22,5.943,29,1,1,38,0.95,NA,NA,NA,NA,"loaf",1,2.291,6.351
"6174","climax","saucer",1,4.533,2,1,1,34,0.85,NA,NA,NA,NA,"skip",0,5.498,8.598
"6174","plant","worm",31,5.457,1,1,1,40,1,NA,NA,NA,NA,"worm",1,6.397,9.118
"6174","glue","force",1,2.62,4,1,1,6,0.15,NA,NA,NA,NA,"skip",0,2.402,4.535
"6174","date","laugh",25,4.64,19,1,0,39,0.975,NA,NA,NA,NA,"skip",0,3.011,5.39
"6174","shrink","mafia",1,2.882,5,1,1,16,0.4,NA,NA,NA,NA,"skip",0,1.101,3.23
"6174","mill","feast",1,3.437,37,1,1,20,0.5,NA,NA,NA,NA,"skip",0,1.3,3.418
"6378","find","clown",25,2.566,18,1,1,26,0.65,NA,NA,NA,NA,"KEEP",0,2.939,7.585
"6378","risk","zero",28,2.511,5,1,1,30,0.75,NA,NA,NA,NA,"wallet",0,3.882,7.679
"6378","collect","loyalty",24,5.144,38,1,1,24,0.6,NA,NA,NA,NA,"sell",0,2.794,5.888
"6378","caring","skirt",31,4.992,8,1,0,33,0.825,NA,NA,NA,NA,"hearing",0,2.601,9.224
"6378","rock","milk",11,8.924,33,1,1,2,0.05,NA,NA,NA,NA,"strong",0,4.737,8.567
"6378","port","cinema",35,2.615,10,1,0,35,0.875,NA,NA,NA,NA,"ready",0,3.146,5.856
"6378","shrink","mafia",17,4.671,21,1,1,12,0.3,NA,NA,NA,NA,"wrap",0,2.809,5.752
"6378","climax","saucer",24,2.599,11,1,1,22,0.55,NA,NA,NA,NA,"show",0,3.216,6.527
"6378","bleach","ruin",63,9.023,40,1,0,39,0.975,NA,NA,NA,NA,"ready",0,2.209,4.328
"6378","bullet","walkway",30,4.615,12,1,0,31,0.775,NA,NA,NA,NA,"cast",0,4.953,6.927
"6378","pork","emperor",15,3.688,3,1,1,8,0.2,NA,NA,NA,NA,"today",0,5.578,8.784
"6378","want","ascent",14,8.096,6,1,0,7,0.175,NA,NA,NA,NA,"bad",0,2.749,6.432
"6378","pea","bathtub",16,3.239,34,1,0,11,0.275,NA,NA,NA,NA,"steady",0,3.529,6.144
"6378","anger","decay",15,2.8,35,1,0,9,0.225,NA,NA,NA,NA,"awesome",0,4.09,8.183
"6378","biology","temper",30,2.616,22,1,1,32,0.8,NA,NA,NA,NA,"ready",0,2.177,4.248
"6378","link","crisis",13,3.584,25,1,1,6,0.15,NA,NA,NA,NA,"home",0,3.658,6.464
"6378","visit","glove",17,2.336,27,1,0,13,0.325,NA,NA,NA,NA,"together",0,2.378,10.441
"6378","prison","loaf",20,3.823,24,1,0,17,0.425,NA,NA,NA,NA,"bread",0,2.433,4.982
"6378","process","joker",25,2.528,39,1,1,28,0.7,NA,NA,NA,NA,"strong",0,2.121,5.935
"6378","mill","feast",23,2.88,23,1,0,21,0.525,NA,NA,NA,NA,"press",0,2.01,4.84
"6378","need","faucet",10,2.966,30,1,0,1,0.025,NA,NA,NA,NA,"want",0,1.842,3.856
"6378","forest","knob",65,3.824,15,1,1,40,1,NA,NA,NA,NA,"knob",1,2.385,5.28
"6378","copy","bedroom",20,3.375,29,1,0,15,0.375,NA,NA,NA,NA,"print",0,2.641,5.864
"6378","fan","feature",25,3.047,19,1,0,25,0.625,NA,NA,NA,NA,"club",0,1.914,4.888
"6378","plant","worm",13,3.448,13,1,0,5,0.125,NA,NA,NA,NA,"pea",0,2.706,5.552
"6378","banner","glide",49,4.696,16,1,1,36,0.9,NA,NA,NA,NA,"glide",1,2.514,5.023
"6378","replace","roach",23,5.792,4,1,1,20,0.5,NA,NA,NA,NA,"so",0,3.09,5.664
"6378","nerve","bumper",12,2.944,36,1,1,4,0.1,NA,NA,NA,NA,"root",0,4.02,11.831
"6378","smother","surgery",20,4.112,32,1,1,16,0.4,NA,NA,NA,NA,"you",0,3.514,5.056
"6378","capital","figure",15,2.56,20,1,1,10,0.25,NA,NA,NA,NA,"white",0,3.001,9.567
"6378","fee","chowder",25,3.473,1,1,0,27,0.675,NA,NA,NA,NA,"toll",0,2.985,4.568
"6378","bias","sirloin",11,2.928,28,1,0,3,0.075,NA,NA,NA,NA,"man",0,5.765,8.048
"6378","glue","force",50,6.015,17,1,0,37,0.925,NA,NA,NA,NA,"strong",0,2.289,5.927
"6378","chicken","beet",61,9.128,7,1,1,38,0.95,NA,NA,NA,NA,"call",0,3.931,5.743
"6378","knock","otter",28,3.599,9,1,0,29,0.725,NA,NA,NA,NA,"hard",0,2.601,4.496
"6378","calf","annoy",24,3.375,37,1,0,23,0.575,NA,NA,NA,NA,"milk",0,3.966,8.591
"6378","bacon","feud",22,3.991,2,1,0,19,0.475,NA,NA,NA,NA,"strong",0,2.104,8.888
"6378","grip","beach",32,3.008,14,1,1,34,0.85,NA,NA,NA,NA,"weapon ",0,2.642,6.103
"6378","date","laugh",19,2.832,26,1,1,14,0.35,NA,NA,NA,NA,"time",0,2.089,4.438
"6378","remind","foam",21,3.407,31,1,1,18,0.45,NA,NA,NA,NA,"self",0,2.082,4.775
"6424","knock","otter",76,9.695,25,1,1,38,0.95,NA,NA,NA,NA,"otter",1,16.612,18.191
"6424","want","ascent",20,31.982,29,1,1,8,0.2,NA,NA,NA,NA,"ascend",0,10.307,15.807
"6424","bacon","feud",60,11.631,33,1,0,27,0.675,NA,NA,NA,NA,"feud",1,13.633,15.601
"6424","remind","foam",61,10.015,17,1,1,28,0.7,NA,NA,NA,NA,"foam",1,9.356,10.949
"6424","plant","worm",18,8.639,18,1,0,7,0.175,NA,NA,NA,NA,"worm",1,2.204,4.201
"6424","capital","figure",45,18.287,21,1,0,23,0.575,NA,NA,NA,NA,"figure",1,2.953,4.725
"6424","calf","annoy",17,11.206,4,1,1,6,0.15,NA,NA,NA,NA,"anniversary",0,6.144,14.824
"6424","replace","roach",29,14.102,39,1,1,14,0.35,NA,NA,NA,NA,"roach",1,4.406,6.795
"6424","fan","feature",37,29.937,34,1,0,17,0.425,NA,NA,NA,NA,"feature",1,2.793,4.874
"6424","banner","glide",29,10.479,31,1,0,13,0.325,NA,NA,NA,NA,"glide",1,5.26,6.848
"6424","smother","surgery",28,17.431,2,1,0,11,0.275,NA,NA,NA,NA,"surgery",1,8.207,10.401
"6424","forest","knob",35,15.272,13,1,1,16,0.4,NA,NA,NA,NA,"knowledge",0,3.621,5.927
"6424","fee","chowder",45,16.16,5,1,1,22,0.55,NA,NA,NA,NA,"chowder",1,8.477,10.338
"6424","grip","beach",43,12.223,22,1,1,20,0.5,NA,NA,NA,NA,"pencil",0,9.181,11.025
"6424","caring","skirt",66,31.992,3,1,0,35,0.875,NA,NA,NA,NA,"skirt",1,2.895,4.595
"6424","collect","loyalty",4,5.455,30,1,0,1,0.025,NA,NA,NA,NA,"loyalty",1,2.797,5.853
"6424","chicken","beet",17,20.751,9,1,0,5,0.125,NA,NA,NA,NA,"beet",1,2.254,4.077
"6424","prison","loaf",78,23.072,19,1,0,39,0.975,NA,NA,NA,NA,"loaf",1,6.67,8.337
"6424","glue","force",64,6.759,12,1,1,34,0.85,NA,NA,NA,NA,"force",1,2.329,3.903
"6424","rock","milk",73,4.79,7,1,0,37,0.925,NA,NA,NA,NA,"milk",1,2.066,3.563
"6424","nerve","bumper",38,17.103,38,1,1,18,0.45,NA,NA,NA,NA,"bury",0,4.591,6.089
"6424","date","laugh",53,6.959,1,1,1,24,0.6,NA,NA,NA,NA,"laugh",1,9.803,11.436
"6424","mill","feast",63,8.647,40,1,1,32,0.8,NA,NA,NA,NA,"feast",1,2.635,7.904
"6424","anger","decay",22,19.112,27,1,0,9,0.225,NA,NA,NA,NA,"decay",1,2.362,3.924
"6424","risk","zero",89,3.64,24,1,1,40,1,NA,NA,NA,NA,"zero",1,1.486,2.852
"6424","bleach","ruin",28,9.224,6,1,1,12,0.3,NA,NA,NA,NA,"ruin",1,4.567,9.676
"6424","copy","bedroom",70,11.207,15,1,1,36,0.9,NA,NA,NA,NA,"bedroom",1,2.663,5.995
"6424","biology","temper",6,7.903,10,1,1,2,0.05,NA,NA,NA,NA,"salt",0,17.63,20.482
"6424","need","faucet",43,10.807,16,1,0,21,0.525,NA,NA,NA,NA,"faucet",1,3.32,5.081
"6424","climax","saucer",38,3.879,37,1,0,19,0.475,NA,NA,NA,NA,"saucer",1,4.758,6.497
"6424","pea","bathtub",60,20.409,26,1,1,26,0.65,NA,NA,NA,NA,"bathtub",1,2.736,6.153
"6424","process","joker",63,15.976,23,1,0,31,0.775,NA,NA,NA,NA,"joker",1,2.611,3.985
"6424","port","cinema",16,10.857,36,1,1,4,0.1,NA,NA,NA,NA,"cinder",0,2.229,6.171
"6424","link","crisis",62,10.935,32,1,1,30,0.75,NA,NA,NA,NA,"crisis",1,2.386,5.359
"6424","bias","sirloin",14,8.032,28,1,0,3,0.075,NA,NA,NA,NA,"steak",0,2.729,6.415
"6424","find","clown",64,12.039,8,1,0,33,0.825,NA,NA,NA,NA,"clown",1,5.721,7.28
"6424","visit","glove",59,8.815,11,1,0,25,0.625,NA,NA,NA,NA,"glove",1,4.3,5.739
"6424","shrink","mafia",24,41.696,14,1,1,10,0.25,NA,NA,NA,NA,"mafia",1,3.005,5.616
